blocks_file,start,dur,rest,mult_problemB,mult_options,stim_trial,mult_stim,type,ProblemSize,InterferenceLH,InterferenceLevel,mult_type,corrRESP,blocks_set.thisRepN,blocks_set.thisTrialN,blocks_set.thisN,blocks_set.thisIndex,TRIALS.thisRepN,TRIALS.thisTrialN,TRIALS.thisN,TRIALS.thisIndex,timer_loop.thisRepN,timer_loop.thisTrialN,timer_loop.thisN,timer_loop.thisIndex,WAIT_TEXT.started,WAIT_TEXT.stopped,scan_start_trigger.keys,scan_start_trigger.rt,scan_start_trigger.started,scan_start_trigger.stopped,MAIN_SCREEN.started,MAIN_SCREEN.stopped,Block_Text.started,Block_Text.stopped,asterisk500ms.started,asterisk500ms.stopped,mult_question_text.started,mult_question_text.stopped,equal_text.started,equal_text.stopped,blank250_text.started,blank250_text.stopped,Mult_OPTION.started,Mult_OPTION.stopped,Mult_YN.started,Mult_YN.stopped,Mult_Resp.keys,Mult_Resp.corr,Mult_Resp.rt,Mult_Resp.started,Mult_Resp.stopped,Strategy_Q.started,Strategy_Q.stopped,Strategy_Option.started,Strategy_Option.stopped,Strategy_RESP.keys,Strategy_RESP.rt,Strategy_RESP.started,Strategy_RESP.stopped,jitters.started,jitters.stopped,resting_text.started,resting_text.stopped,countdown_timer.started,countdown_timer.stopped,participant,Date of birth (DD/MM/YEAR),gender,Testing Date (DD/MM/YEAR),session,handedness,date,expName,psychopyVersion,frameRate
,,,,,,,,,,,,,,,,,,,,,,,,,,81.70420214700061,None,s,33.54436906100091,81.70420214700061,None,,,,,,,,,,,,,,,,,,,,,,,,,,,,,,,,,,,,sub-11,06/12/2002,2: Female,15/07/2023,001,1: right,2023_Jul_15_1333,[FINAL]_fmri_multiplication,2021.2.3,60.0668164
block1.xlsx,10,7.5,15.3,6 x 6,36,13,6 x 6 = 36,large-sized_low-interference,large-sized,low-interference,4,CorrectRESP,a,0,0,0,0,0,0,0,0,,,,,,,,,,,115.2746725729994,None,120.29620986500231,None,130.31939575900105,None,130.79427946000214,None,132.77533898399997,None,133.5253792020012,None,133.77799870400122,None,133.77799870400122,None,d,0,0.9030749849989661,133.77799870400122,None,134.70925484500185,None,134.70925484500185,None,d,1.0757535449993156,134.70925484500185,None,135.8081342120022,None,,,,,sub-11,06/12/2002,2: Female,15/07/2023,001,1: right,2023_Jul_15_1333,[FINAL]_fmri_multiplication,2021.2.3,60.0668164
block1.xlsx,32.8,7.5,2.5,2 x 9,18,2,2 x 9 = 18,small-sized_low-interference,small-sized,low-interference,7,CorrectRESP,a,0,0,0,0,0,1,1,1,,,,,,,,,,,,,,,151.10780730799888,None,151.6107190690018,None,153.62485080999977,None,154.3748903500018,None,154.6390086350002,None,154.6390086350002,None,d,0,0.6579515400007949,154.6390086350002,None,155.3241568150006,None,155.3241568150006,None,d,0.5249137190003239,155.3241568150006,None,155.87471551600174,None,,,,,sub-11,06/12/2002,2: Female,15/07/2023,001,1: right,2023_Jul_15_1333,[FINAL]_fmri_multiplication,2021.2.3,60.0668164
block1.xlsx,42.8,7.5,3.8,8 x 4,28,24,8 x 4 = 28,large-sized_high-interference,large-sized,high-interference,25,IncorrectRESP,d,0,0,0,0,0,2,2,2,,,,,,,,,,,,,,,158.3744169019992,None,158.8765903,None,160.89153928499945,None,161.6416406850003,None,161.89156513700073,None,161.89156513700073,None,a,0,0.8454044810023333,161.89156513700073,None,162.75789966899902,None,162.75789966899902,None,a,0.9631936949990632,162.75789966899902,None,163.7413171070002,None,,,,,sub-11,06/12/2002,2: Female,15/07/2023,001,1: right,2023_Jul_15_1333,[FINAL]_fmri_multiplication,2021.2.3,60.0668164
block1.xlsx,54.1,7.5,5.5,7 x 2,14,1,7 x 2 = 14,small-sized_low-interference,small-sized,low-interference,4,CorrectRESP,a,0,0,0,0,0,3,3,3,,,,,,,,,,,,,,,167.54199022600005,None,168.0560465689996,None,170.0584678,None,170.8087581740001,None,171.05862135400093,None,171.05862135400093,None,d,0,0.6783750659997168,171.05862135400093,None,171.75823876600043,None,171.75823876600043,None,d,0.6267210240002896,171.75823876600043,None,172.4082395459991,None,,,,,sub-11,06/12/2002,2: Female,15/07/2023,001,1: right,2023_Jul_15_1333,[FINAL]_fmri_multiplication,2021.2.3,60.0668164
block1.xlsx,67.1,7.5,3,7 x 7,56,18,7 x 7 = 56,large-sized_low-interference,large-sized,low-interference,7,IncorrectRESP,d,0,0,0,0,0,4,4,4,,,,,,,,,,,,,,,177.9083348540007,None,178.41145043399956,None,180.42491463899933,None,181.1745933029997,None,181.42647605100137,None,181.42647605100137,None,d,1,1.2306863810008508,181.42647605100137,None,182.6746743069998,None,182.6746743069998,None,a,0.694391828,182.6746743069998,None,183.39110672300012,None,,,,,sub-11,06/12/2002,2: Female,15/07/2023,001,1: right,2023_Jul_15_1333,[FINAL]_fmri_multiplication,2021.2.3,60.0668164
block1.xlsx,77.6,7.5,2.1,3 x 4,12,9,3 x 4 = 12,small-sized_high-interference,small-sized,high-interference,10,CorrectRESP,a,0,0,0,0,0,5,5,5,,,,,,,,,,,,,,,186.39171456500117,None,186.8911159140007,None,188.89162636400215,None,189.6415776069989,None,189.8914748440002,None,189.8914748440002,None,d,0,0.6935243970001466,189.8914748440002,None,190.60763967499952,None,190.60763967499952,None,d,0.48943271200187155,190.60763967499952,None,191.12447780900038,None,,,,,sub-11,06/12/2002,2: Female,15/07/2023,001,1: right,2023_Jul_15_1333,[FINAL]_fmri_multiplication,2021.2.3,60.0668164
block1.xlsx,87.2,7.5,5,8 x 7,63,22,8 x 7 = 63,large-sized_high-interference,large-sized,high-interference,9,IncorrectRESP,d,0,0,0,0,0,6,6,6,,,,,,,,,,,,,,,193.22438816100112,None,193.72505003200058,None,195.7408368590004,None,196.4915438,None,196.74186675199962,None,196.74186675199962,None,a,0,1.2671250130006229,196.74186675199962,None,198.04131730600056,None,198.04131730600056,None,a,0.7836437119985931,198.04131730600056,None,198.85798853099914,None,,,,,sub-11,06/12/2002,2: Female,15/07/2023,001,1: right,2023_Jul_15_1333,[FINAL]_fmri_multiplication,2021.2.3,60.0668164
block1.xlsx,99.7,7.5,3,5 x 5,25,3,5 x 5 = 25,small-sized_low-interference,small-sized,low-interference,3,CorrectRESP,a,0,0,0,0,0,7,7,7,,,,,,,,,,,,,,,203.85588201599967,None,204.35028764600065,None,206.3577932750013,None,207.1086666930023,None,207.3588752450014,None,207.3588752450014,None,d,0,0.7381897590021254,207.3588752450014,None,208.12489422699946,None,208.12489422699946,None,d,0.5081748070006142,208.12489422699946,None,208.65844991799895,None,,,,,sub-11,06/12/2002,2: Female,15/07/2023,001,1: right,2023_Jul_15_1333,[FINAL]_fmri_multiplication,2021.2.3,60.0668164
block1.xlsx,110.2,7.5,6.5,6 x 4,28,10,6 x 4 = 28,small-sized_high-interference,small-sized,high-interference,12,IncorrectRESP,d,0,0,0,0,0,8,8,8,,,,,,,,,,,,,,,211.65834148100112,None,212.15796152999974,None,214.15810921999946,None,214.9082799780008,None,215.15813954999976,None,215.15813954999976,None,a,0,1.8348496910002723,215.15813954999976,None,217.02499302200158,None,217.02499302200158,None,a,0.6161240959991119,217.02499302200158,None,217.6584658440006,None,,,,,sub-11,06/12/2002,2: Female,15/07/2023,001,1: right,2023_Jul_15_1333,[FINAL]_fmri_multiplication,2021.2.3,60.0668164
block1.xlsx,124.2,7.5,5.7,5 x 8,40,21,5 x 8 = 40,large-sized_high-interference,large-sized,high-interference,9,CorrectRESP,a,0,0,0,0,0,9,9,9,,,,,,,,,,,,,,,224.15818204899915,None,224.65816784300114,None,226.6578392529991,None,227.40830783500132,None,227.6595324930022,None,227.6595324930022,None,d,0,0.7735120940014895,227.6595324930022,None,228.45781760300088,None,228.45781760300088,None,d,0.39117096300105914,228.45781760300088,None,228.87401626599967,None,,,,,sub-11,06/12/2002,2: Female,15/07/2023,001,1: right,2023_Jul_15_1333,[FINAL]_fmri_multiplication,2021.2.3,60.0668164
block1.xlsx,137.4,7.5,11.2,7 x 3,24,11,7 x 3 = 24,small-sized_high-interference,small-sized,high-interference,13,IncorrectRESP,d,0,0,0,0,0,10,10,10,,,,,,,,,,,,,,,234.57500970000183,None,235.0750793449988,None,237.07518247400003,None,237.82147027199971,None,238.0671213909991,None,238.0671213909991,None,a,0,0.8378925309989427,238.0671213909991,None,238.92629943000065,None,238.92629943000065,None,d,0.7627908659997047,238.92629943000065,None,239.7080953850018,None,,,,,sub-11,06/12/2002,2: Female,15/07/2023,001,1: right,2023_Jul_15_1333,[FINAL]_fmri_multiplication,2021.2.3,60.0668164
block1.xlsx,156.1,7.5,6.9,5 x 6,30,14,5 x 6 = 30,large-sized_low-interference,large-sized,low-interference,6,CorrectRESP,a,0,0,0,0,0,11,11,11,,,,,,,,,,,,,,,250.90885390599942,None,251.4082586930017,None,253.4082115,None,254.15833748600198,None,254.4084489630004,None,254.4084489630004,None,d,0,1.624605534998409,254.4084489630004,None,256.0578144659994,None,256.0578144659994,None,d,0.583347057,256.0578144659994,None,256.6577478629988,None,,,,,sub-11,06/12/2002,2: Female,15/07/2023,001,1: right,2023_Jul_15_1333,[FINAL]_fmri_multiplication,2021.2.3,60.0668164
block1.xlsx,170.5,7.5,2.4,6 x 2,10,6,6 x 2 = 10,small-sized_low-interference,small-sized,low-interference,3,IncorrectRESP,d,0,0,0,0,0,12,12,12,,,,,,,,,,,,,,,263.55751944499934,None,264.0577835699987,None,266.05810019099954,None,266.8082623170012,None,267.0585664620012,None,267.0585664620012,None,a,0,0.870516654,267.0585664620012,None,267.95792381700085,None,267.95792381700085,None,d,0.4350371439977607,267.95792381700085,None,268.4245163170017,None,,,,,sub-11,06/12/2002,2: Female,15/07/2023,001,1: right,2023_Jul_15_1333,[FINAL]_fmri_multiplication,2021.2.3,60.0668164
block1.xlsx,180.4,7.5,4.6,4 x 9,36,20,4 x 9 = 36,large-sized_high-interference,large-sized,high-interference,9,CorrectRESP,a,0,0,0,0,0,13,13,13,,,,,,,,,,,,,,,270.8249098660017,None,271.3241323170005,None,273.3254051440017,None,274.0753053890003,None,274.3257564839987,None,274.3257564839987,None,d,0,0.6993525930010946,274.3257564839987,None,275.0421116010002,None,275.0421116010002,None,d,0.34285902000192436,275.0421116010002,None,275.40824617399994,None,,,,,sub-11,06/12/2002,2: Female,15/07/2023,001,1: right,2023_Jul_15_1333,[FINAL]_fmri_multiplication,2021.2.3,60.0668164
block1.xlsx,192.5,7.5,9,7 x 5,40,17,7 x 5 = 40,large-sized_low-interference,large-sized,low-interference,7,IncorrectRESP,d,0,0,0,0,0,14,14,14,,,,,,,,,,,,,,,280.00870712600226,None,280.50800240199897,None,282.50825450699995,None,283.25841035600024,None,283.5078132960007,None,283.5078132960007,None,a,0,1.5491916999999376,283.5078132960007,None,285.07453255200016,None,285.07453255200016,None,d,0.4385430929978611,285.07453255200016,None,285.54168754700004,None,,,,,sub-11,06/12/2002,2: Female,15/07/2023,001,1: right,2023_Jul_15_1333,[FINAL]_fmri_multiplication,2021.2.3,60.0668164
block1.xlsx,209,7.5,5.8,6 x 3,18,7,6 x 3 = 18,small-sized_high-interference,small-sized,high-interference,8,CorrectRESP,a,0,0,0,0,0,15,15,15,,,,,,,,,,,,,,,294.54169357900173,None,295.0419407850022,None,297.04148835199885,None,297.7915538289999,None,298.0413844,None,298.0413844,None,d,0,0.6796728449990042,298.0413844,None,298.74096097200163,None,298.74096097200163,None,d,0.36411662899990915,298.74096097200163,None,299.1244697,None,,,,,sub-11,06/12/2002,2: Female,15/07/2023,001,1: right,2023_Jul_15_1333,[FINAL]_fmri_multiplication,2021.2.3,60.0668164
block1.xlsx,222.3,7.5,2.9,7 x 6,48,23,7 x 6 = 48,large-sized_high-interference,large-sized,high-interference,22,IncorrectRESP,d,0,0,0,0,0,16,16,16,,,,,,,,,,,,,,,304.9246616780001,None,305.4248418,None,307.42514678299995,None,308.1753458130006,None,308.4254919180021,None,308.4254919180021,None,a,0,1.8315464560000692,308.4254919180021,None,310.27483808800025,None,310.27483808800025,None,a,0.4621821600012481,310.27483808800025,None,310.75822571499884,None,,,,,sub-11,06/12/2002,2: Female,15/07/2023,001,1: right,2023_Jul_15_1333,[FINAL]_fmri_multiplication,2021.2.3,60.0668164
block1.xlsx,232.7,7.5,6.9,9 x 5,45,15,9 x 5 = 45,large-sized_low-interference,large-sized,low-interference,6,CorrectRESP,a,0,0,0,0,0,17,17,17,,,,,,,,,,,,,,,313.6577037320021,None,314.15858296100123,None,316.15882192700155,None,316.9083129,None,317.15951852500075,None,317.15951852500075,None,d,0,0.8014414520002902,317.15951852500075,None,317.9911534,None,317.9911534,None,d,0.282002204,317.9911534,None,318.29109459499887,None,,,,,sub-11,06/12/2002,2: Female,15/07/2023,001,1: right,2023_Jul_15_1333,[FINAL]_fmri_multiplication,2021.2.3,60.0668164
block1.xlsx,247.1,7.5,2.5,4 x 4,20,4,4 x 4 = 20,small-sized_low-interference,small-sized,low-interference,5,IncorrectRESP,d,0,0,0,0,0,18,18,18,,,,,,,,,,,,,,,325.1916589620014,None,325.6913201489988,None,327.6915805110002,None,328.4416031260007,None,328.6913833840008,None,328.6913833840008,None,a,0,1.309581817000435,328.6913833840008,None,330.02451084600034,None,330.02451084600034,None,d,0.5045134840001992,330.02451084600034,None,330.5582953,None,,,,,sub-11,06/12/2002,2: Female,15/07/2023,001,1: right,2023_Jul_15_1333,[FINAL]_fmri_multiplication,2021.2.3,60.0668164
block1.xlsx,257.1,7.5,3.7,9 x 3,27,19,9 x 3 = 27,large-sized_high-interference,large-sized,high-interference,9,CorrectRESP,a,0,0,0,0,0,19,19,19,,,,,,,,,,,,,,,333.0578114790005,None,333.55839660100173,None,335.55825989500227,None,336.30732381800044,None,336.5582952779987,None,336.5582952779987,None,a,1,1.1387765360013873,336.5582952779987,None,337.72442737299934,None,337.72442737299934,None,d,0.5726442400009546,337.72442737299934,None,338.3249611,None,,,,,sub-11,06/12/2002,2: Female,15/07/2023,001,1: right,2023_Jul_15_1333,[FINAL]_fmri_multiplication,2021.2.3,60.0668164
block1.xlsx,268.3,7.5,3.5,4 x 5,20,8,4 x 5 = 20,small-sized_high-interference,small-sized,high-interference,8,CorrectRESP,a,0,0,0,0,0,20,20,20,,,,,,,,,,,,,,,342.02514476000215,None,342.5257929,None,344.525246,None,345.2751349530008,None,345.5395374100008,None,345.5395374100008,None,a,1,1.229567237001902,345.5395374100008,None,346.79134084399993,None,346.79134084399993,None,d,0.6817228920008347,346.79134084399993,None,347.49141957699976,None,,,,,sub-11,06/12/2002,2: Female,15/07/2023,001,1: right,2023_Jul_15_1333,[FINAL]_fmri_multiplication,2021.2.3,60.0668164
block1.xlsx,279.3,7.5,11.6,9 x 9,72,16,9 x 9 = 72,large-sized_low-interference,large-sized,low-interference,6,IncorrectRESP,d,0,0,0,0,0,21,21,21,,,,,,,,,,,,,,,350.9920044470018,None,351.4914942739997,None,353.49167339500127,None,354.2417376070007,None,354.4911677570017,None,354.4911677570017,None,a,0,1.4938021580019267,354.4911677570017,None,356.0079676810019,None,356.0079676810019,None,d,0.40098808399852715,356.0079676810019,None,356.44157159300084,None,,,,,sub-11,06/12/2002,2: Female,15/07/2023,001,1: right,2023_Jul_15_1333,[FINAL]_fmri_multiplication,2021.2.3,60.0668164
block1.xlsx,298.4,7.5,12.8,3 x 8,21,12,3 x 8 = 21,small-sized_high-interference,small-sized,high-interference,13,IncorrectRESP,d,0,0,0,0,0,22,22,22,,,,,,,,,,,,,,,368.0411215080021,None,368.5416878920005,None,370.5415741850011,None,371.2911231649996,None,371.5421223,None,371.5421223,None,a,0,0.8028433689978556,371.5421223,None,372.37472979200174,None,372.37472979200174,None,d,0.3223428649980633,372.37472979200174,None,372.7249291,None,,,,,sub-11,06/12/2002,2: Female,15/07/2023,001,1: right,2023_Jul_15_1333,[FINAL]_fmri_multiplication,2021.2.3,60.0668164
block1.xlsx,318.7,7.5,8.8,8 x 2,18,5,8 x 2 = 18,small-sized_low-interference,small-sized,low-interference,7,IncorrectRESP,d,0,0,0,0,0,23,23,23,,,,,,,,,,,,,,,385.5247619210022,None,386.02522071800195,None,388.02503211600197,None,388.77496286600217,None,389.02495095500126,None,389.02495095500126,None,a,0,0.7999684840033296,389.02495095500126,None,389.84155771299993,None,389.84155771299993,None,d,0.2875223989976803,389.84155771299993,None,390.15817645399875,None,,,,,sub-11,06/12/2002,2: Female,15/07/2023,001,1: right,2023_Jul_15_1333,[FINAL]_fmri_multiplication,2021.2.3,60.0668164
block1.xlsx,,,,,,,,,,,,,,0,0,0,0,,,,,0,0,0,0,,,,,,,,,,,,,,,,,,,,,,,,,,,,,,,,,,,,,,398.9607002550001,None,398.9607002550001,None,sub-11,06/12/2002,2: Female,15/07/2023,001,1: right,2023_Jul_15_1333,[FINAL]_fmri_multiplication,2021.2.3,60.0668164
block1.xlsx,,,,,,,,,,,,,,0,0,0,0,,,,,1,0,1,0,,,,,,,,,,,,,,,,,,,,,,,,,,,,,,,,,,,,,,399.9772820770013,None,399.9772820770013,None,sub-11,06/12/2002,2: Female,15/07/2023,001,1: right,2023_Jul_15_1333,[FINAL]_fmri_multiplication,2021.2.3,60.0668164
block1.xlsx,,,,,,,,,,,,,,0,0,0,0,,,,,2,0,2,0,,,,,,,,,,,,,,,,,,,,,,,,,,,,,,,,,,,,,,400.97738774699974,None,400.97738774699974,None,sub-11,06/12/2002,2: Female,15/07/2023,001,1: right,2023_Jul_15_1333,[FINAL]_fmri_multiplication,2021.2.3,60.0668164
block1.xlsx,,,,,,,,,,,,,,0,0,0,0,,,,,3,0,3,0,,,,,,,,,,,,,,,,,,,,,,,,,,,,,,,,,,,,,,401.9761767090022,None,401.9761767090022,None,sub-11,06/12/2002,2: Female,15/07/2023,001,1: right,2023_Jul_15_1333,[FINAL]_fmri_multiplication,2021.2.3,60.0668164
block1.xlsx,,,,,,,,,,,,,,0,0,0,0,,,,,4,0,4,0,,,,,,,,,,,,,,,,,,,,,,,,,,,,,,,,,,,,,,402.97632852899915,None,402.97632852899915,None,sub-11,06/12/2002,2: Female,15/07/2023,001,1: right,2023_Jul_15_1333,[FINAL]_fmri_multiplication,2021.2.3,60.0668164
block1.xlsx,,,,,,,,,,,,,,0,0,0,0,,,,,5,0,5,0,,,,,,,,,,,,,,,,,,,,,,,,,,,,,,,,,,,,,,403.9771668370013,None,403.9771668370013,None,sub-11,06/12/2002,2: Female,15/07/2023,001,1: right,2023_Jul_15_1333,[FINAL]_fmri_multiplication,2021.2.3,60.0668164
block1.xlsx,,,,,,,,,,,,,,0,0,0,0,,,,,6,0,6,0,,,,,,,,,,,,,,,,,,,,,,,,,,,,,,,,,,,,,,404.9773304190021,None,404.9773304190021,None,sub-11,06/12/2002,2: Female,15/07/2023,001,1: right,2023_Jul_15_1333,[FINAL]_fmri_multiplication,2021.2.3,60.0668164
block1.xlsx,,,,,,,,,,,,,,0,0,0,0,,,,,7,0,7,0,,,,,,,,,,,,,,,,,,,,,,,,,,,,,,,,,,,,,,405.97519511200153,None,405.97519511200153,None,sub-11,06/12/2002,2: Female,15/07/2023,001,1: right,2023_Jul_15_1333,[FINAL]_fmri_multiplication,2021.2.3,60.0668164
block1.xlsx,,,,,,,,,,,,,,0,0,0,0,,,,,8,0,8,0,,,,,,,,,,,,,,,,,,,,,,,,,,,,,,,,,,,,,,406.9751827860018,None,406.9751827860018,None,sub-11,06/12/2002,2: Female,15/07/2023,001,1: right,2023_Jul_15_1333,[FINAL]_fmri_multiplication,2021.2.3,60.0668164
block1.xlsx,,,,,,,,,,,,,,0,0,0,0,,,,,9,0,9,0,,,,,,,,,,,,,,,,,,,,,,,,,,,,,,,,,,,,,,407.97700486599933,None,407.97700486599933,None,sub-11,06/12/2002,2: Female,15/07/2023,001,1: right,2023_Jul_15_1333,[FINAL]_fmri_multiplication,2021.2.3,60.0668164
block1.xlsx,,,,,,,,,,,,,,0,0,0,0,,,,,10,0,10,0,,,,,,,,,,,,,,,,,,,,,,,,,,,,,,,,,,,,,,408.97521174600115,None,408.97521174600115,None,sub-11,06/12/2002,2: Female,15/07/2023,001,1: right,2023_Jul_15_1333,[FINAL]_fmri_multiplication,2021.2.3,60.0668164
block1.xlsx,,,,,,,,,,,,,,0,0,0,0,,,,,11,0,11,0,,,,,,,,,,,,,,,,,,,,,,,,,,,,,,,,,,,,,,409.97519825400013,None,409.97519825400013,None,sub-11,06/12/2002,2: Female,15/07/2023,001,1: right,2023_Jul_15_1333,[FINAL]_fmri_multiplication,2021.2.3,60.0668164
block1.xlsx,,,,,,,,,,,,,,0,0,0,0,,,,,12,0,12,0,,,,,,,,,,,,,,,,,,,,,,,,,,,,,,,,,,,,,,410.98915559099987,None,410.98915559099987,None,sub-11,06/12/2002,2: Female,15/07/2023,001,1: right,2023_Jul_15_1333,[FINAL]_fmri_multiplication,2021.2.3,60.0668164
block1.xlsx,,,,,,,,,,,,,,0,0,0,0,,,,,13,0,13,0,,,,,,,,,,,,,,,,,,,,,,,,,,,,,,,,,,,,,,411.9759543680011,None,411.9759543680011,None,sub-11,06/12/2002,2: Female,15/07/2023,001,1: right,2023_Jul_15_1333,[FINAL]_fmri_multiplication,2021.2.3,60.0668164
block1.xlsx,,,,,,,,,,,,,,0,0,0,0,,,,,14,0,14,0,,,,,,,,,,,,,,,,,,,,,,,,,,,,,,,,,,,,,,412.9757845060012,None,412.9757845060012,None,sub-11,06/12/2002,2: Female,15/07/2023,001,1: right,2023_Jul_15_1333,[FINAL]_fmri_multiplication,2021.2.3,60.0668164
block1.xlsx,,,,,,,,,,,,,,0,0,0,0,,,,,15,0,15,0,,,,,,,,,,,,,,,,,,,,,,,,,,,,,,,,,,,,,,413.97686937600156,None,413.97686937600156,None,sub-11,06/12/2002,2: Female,15/07/2023,001,1: right,2023_Jul_15_1333,[FINAL]_fmri_multiplication,2021.2.3,60.0668164
block1.xlsx,,,,,,,,,,,,,,0,0,0,0,,,,,16,0,16,0,,,,,,,,,,,,,,,,,,,,,,,,,,,,,,,,,,,,,,414.9760028160017,None,414.9760028160017,None,sub-11,06/12/2002,2: Female,15/07/2023,001,1: right,2023_Jul_15_1333,[FINAL]_fmri_multiplication,2021.2.3,60.0668164
block1.xlsx,,,,,,,,,,,,,,0,0,0,0,,,,,17,0,17,0,,,,,,,,,,,,,,,,,,,,,,,,,,,,,,,,,,,,,,415.9752619050014,None,415.9752619050014,None,sub-11,06/12/2002,2: Female,15/07/2023,001,1: right,2023_Jul_15_1333,[FINAL]_fmri_multiplication,2021.2.3,60.0668164
block1.xlsx,,,,,,,,,,,,,,0,0,0,0,,,,,18,0,18,0,,,,,,,,,,,,,,,,,,,,,,,,,,,,,,,,,,,,,,416.9756011130012,None,416.9756011130012,None,sub-11,06/12/2002,2: Female,15/07/2023,001,1: right,2023_Jul_15_1333,[FINAL]_fmri_multiplication,2021.2.3,60.0668164
block1.xlsx,,,,,,,,,,,,,,0,0,0,0,,,,,19,0,19,0,,,,,,,,,,,,,,,,,,,,,,,,,,,,,,,,,,,,,,417.9778427929996,None,417.9778427929996,None,sub-11,06/12/2002,2: Female,15/07/2023,001,1: right,2023_Jul_15_1333,[FINAL]_fmri_multiplication,2021.2.3,60.0668164
block1.xlsx,,,,,,,,,,,,,,0,0,0,0,,,,,20,0,20,0,,,,,,,,,,,,,,,,,,,,,,,,,,,,,,,,,,,,,,418.9755075050016,None,418.9755075050016,None,sub-11,06/12/2002,2: Female,15/07/2023,001,1: right,2023_Jul_15_1333,[FINAL]_fmri_multiplication,2021.2.3,60.0668164
block1.xlsx,,,,,,,,,,,,,,0,0,0,0,,,,,21,0,21,0,,,,,,,,,,,,,,,,,,,,,,,,,,,,,,,,,,,,,,419.97668800500105,None,419.97668800500105,None,sub-11,06/12/2002,2: Female,15/07/2023,001,1: right,2023_Jul_15_1333,[FINAL]_fmri_multiplication,2021.2.3,60.0668164
block1.xlsx,,,,,,,,,,,,,,0,0,0,0,,,,,22,0,22,0,,,,,,,,,,,,,,,,,,,,,,,,,,,,,,,,,,,,,,420.9753953729996,None,420.9753953729996,None,sub-11,06/12/2002,2: Female,15/07/2023,001,1: right,2023_Jul_15_1333,[FINAL]_fmri_multiplication,2021.2.3,60.0668164
block1.xlsx,,,,,,,,,,,,,,0,0,0,0,,,,,23,0,23,0,,,,,,,,,,,,,,,,,,,,,,,,,,,,,,,,,,,,,,421.9751719929991,None,421.9751719929991,None,sub-11,06/12/2002,2: Female,15/07/2023,001,1: right,2023_Jul_15_1333,[FINAL]_fmri_multiplication,2021.2.3,60.0668164
block1.xlsx,,,,,,,,,,,,,,0,0,0,0,,,,,24,0,24,0,,,,,,,,,,,,,,,,,,,,,,,,,,,,,,,,,,,,,,422.97495607400197,None,422.97495607400197,None,sub-11,06/12/2002,2: Female,15/07/2023,001,1: right,2023_Jul_15_1333,[FINAL]_fmri_multiplication,2021.2.3,60.0668164
block1.xlsx,,,,,,,,,,,,,,0,0,0,0,,,,,25,0,25,0,,,,,,,,,,,,,,,,,,,,,,,,,,,,,,,,,,,,,,423.9750418370022,None,423.9750418370022,None,sub-11,06/12/2002,2: Female,15/07/2023,001,1: right,2023_Jul_15_1333,[FINAL]_fmri_multiplication,2021.2.3,60.0668164
block1.xlsx,,,,,,,,,,,,,,0,0,0,0,,,,,26,0,26,0,,,,,,,,,,,,,,,,,,,,,,,,,,,,,,,,,,,,,,424.9747038220012,None,424.9747038220012,None,sub-11,06/12/2002,2: Female,15/07/2023,001,1: right,2023_Jul_15_1333,[FINAL]_fmri_multiplication,2021.2.3,60.0668164
block1.xlsx,,,,,,,,,,,,,,0,0,0,0,,,,,27,0,27,0,,,,,,,,,,,,,,,,,,,,,,,,,,,,,,,,,,,,,,425.9749647360004,None,425.9749647360004,None,sub-11,06/12/2002,2: Female,15/07/2023,001,1: right,2023_Jul_15_1333,[FINAL]_fmri_multiplication,2021.2.3,60.0668164
block1.xlsx,,,,,,,,,,,,,,0,0,0,0,,,,,28,0,28,0,,,,,,,,,,,,,,,,,,,,,,,,,,,,,,,,,,,,,,426.9747744140004,None,426.9747744140004,None,sub-11,06/12/2002,2: Female,15/07/2023,001,1: right,2023_Jul_15_1333,[FINAL]_fmri_multiplication,2021.2.3,60.0668164
block1.xlsx,,,,,,,,,,,,,,0,0,0,0,,,,,29,0,29,0,,,,,,,,,,,,,,,,,,,,,,,,,,,,,,,,,,,,,,427.9750660400023,None,427.9750660400023,None,sub-11,06/12/2002,2: Female,15/07/2023,001,1: right,2023_Jul_15_1333,[FINAL]_fmri_multiplication,2021.2.3,60.0668164
block1.xlsx,,,,,,,,,,,,,,0,0,0,0,,,,,,,,,,,,,,,,,,,,,,,,,,,,,,,,,,,,,,,,,,,,,,,,,,sub-11,06/12/2002,2: Female,15/07/2023,001,1: right,2023_Jul_15_1333,[FINAL]_fmri_multiplication,2021.2.3,60.0668164
block2.xlsx,10,7.5,3.4,3 x 4,15,9,3 x 4 = 15,small-sized_high-interference,small-sized,high-interference,10,IncorrectRESP,d,0,1,1,1,0,0,0,0,,,,,,,,,,,,,428.9745594300002,None,438.99792388900096,None,439.4747692000019,None,441.4748981410012,None,442.2248772,None,442.4748828800002,None,442.4748828800002,None,a,0,0.7740834479991463,442.4748828800002,None,443.27338355699976,None,443.27338355699976,None,d,0.351537428,443.27338355699976,None,443.64110409299974,None,,,,,sub-11,06/12/2002,2: Female,15/07/2023,001,1: right,2023_Jul_15_1333,[FINAL]_fmri_multiplication,2021.2.3,60.0668164
block2.xlsx,20.9,7.5,7,9 x 5,40,15,9 x 5 = 40,large-sized_low-interference,large-sized,low-interference,6,IncorrectRESP,d,0,1,1,1,0,1,1,1,,,,,,,,,,,,,,,447.0417348629999,None,447.5416042700017,None,449.5421400619998,None,450.2914984480012,None,450.54186085200126,None,450.54186085200126,None,None,0,,450.54186085200126,None,452.54201696400196,None,452.54201696400196,None,a,0.042979629997716984,452.54201696400196,None,452.6083138239992,None,,,,,sub-11,06/12/2002,2: Female,15/07/2023,001,1: right,2023_Jul_15_1333,[FINAL]_fmri_multiplication,2021.2.3,60.0668164
block2.xlsx,35.4,7.5,6.6,6 x 4,24,10,6 x 4 = 24,small-sized_high-interference,small-sized,high-interference,12,CorrectRESP,a,0,1,1,1,0,2,2,2,,,,,,,,,,,,,,,459.60841878499923,None,460.10837371100206,None,462.1073137,None,462.8583760770016,None,463.1088108309996,None,463.1088108309996,None,d,0,1.3402744999984861,463.1088108309996,None,464.47403994900014,None,464.47403994900014,None,a,0.6070397779985797,464.47403994900014,None,465.1083284,None,,,,,sub-11,06/12/2002,2: Female,15/07/2023,001,1: right,2023_Jul_15_1333,[FINAL]_fmri_multiplication,2021.2.3,60.0668164
block2.xlsx,49.5,7.5,12,7 x 6,42,23,7 x 6 = 42,large-sized_high-interference,large-sized,high-interference,22,CorrectRESP,a,0,1,1,1,0,3,3,3,,,,,,,,,,,,,,,471.7082911329999,None,472.2079447920005,None,474.20733644199936,None,474.9583070580011,None,475.2084051,None,475.2084051,None,a,1,1.0406682829998317,475.2084051,None,476.2742833600023,None,476.2742833600023,None,a,0.7347092609998072,476.2742833600023,None,477.04153337200114,None,,,,,sub-11,06/12/2002,2: Female,15/07/2023,001,1: right,2023_Jul_15_1333,[FINAL]_fmri_multiplication,2021.2.3,60.0668164
block2.xlsx,69,7.5,4.9,6 x 2,12,6,6 x 2 = 12,small-sized_low-interference,small-sized,low-interference,3,CorrectRESP,a,0,1,1,1,0,4,4,4,,,,,,,,,,,,,,,489.0409128909996,None,489.5418394740009,None,491.54207817800125,None,492.29192676599996,None,492.5416842580016,None,492.5416842580016,None,d,0,0.7713949880017026,492.5416842580016,None,493.34185873800016,None,493.34185873800016,None,d,0.3552302919997601,493.34185873800016,None,493.72487866899974,None,,,,,sub-11,06/12/2002,2: Female,15/07/2023,001,1: right,2023_Jul_15_1333,[FINAL]_fmri_multiplication,2021.2.3,60.0668164
block2.xlsx,81.4,7.5,6.6,4 x 9,32,20,4 x 9 = 32,large-sized_high-interference,large-sized,high-interference,9,IncorrectRESP,d,0,1,1,1,0,5,5,5,,,,,,,,,,,,,,,498.6250321,None,499.12512188799883,None,501.12440859300114,None,501.87514339300105,None,502.1253181050015,None,502.1253181050015,None,a,0,0.8676554199992097,502.1253181050015,None,503.02468961699924,None,503.02468961699924,None,d,0.5123368829990795,503.02468961699924,None,503.5577103200012,None,,,,,sub-11,06/12/2002,2: Female,15/07/2023,001,1: right,2023_Jul_15_1333,[FINAL]_fmri_multiplication,2021.2.3,60.0668164
block2.xlsx,95.5,7.5,2.6,5 x 5,30,3,5 x 5 = 30,small-sized_low-interference,small-sized,low-interference,3,IncorrectRESP,d,0,1,1,1,0,6,6,6,,,,,,,,,,,,,,,510.1577701839997,None,510.6579153290004,None,512.6580364850015,None,513.4081849639988,None,513.6744029760011,None,513.6744029760011,None,a,0,0.7265754359978018,513.6744029760011,None,514.4245966160015,None,514.4245966160015,None,d,0.5763785960007226,514.4245966160015,None,515.0246551160017,None,,,,,sub-11,06/12/2002,2: Female,15/07/2023,001,1: right,2023_Jul_15_1333,[FINAL]_fmri_multiplication,2021.2.3,60.0668164
block2.xlsx,105.6,7.5,3.7,8 x 4,32,24,8 x 4 = 32,large-sized_high-interference,large-sized,high-interference,25,CorrectRESP,a,0,1,1,1,0,7,7,7,,,,,,,,,,,,,,,517.6251454480007,None,518.1251821440019,None,520.1253154110018,None,520.8753523060004,None,521.1265834229998,None,521.1265834229998,None,a,1,0.6743729659974633,521.1265834229998,None,521.8249862410012,None,521.8249862410012,None,d,0.20008353299999726,521.8249862410012,None,522.0420325830019,None,,,,,sub-11,06/12/2002,2: Female,15/07/2023,001,1: right,2023_Jul_15_1333,[FINAL]_fmri_multiplication,2021.2.3,60.0668164
block2.xlsx,116.8,7.5,3.1,2 x 9,16,2,2 x 9 = 16,small-sized_low-interference,small-sized,low-interference,7,IncorrectRESP,d,0,1,1,1,0,8,8,8,,,,,,,,,,,,,,,525.7420251949989,None,526.2419201330013,None,528.2417546620018,None,528.9916856480013,None,529.2412674959996,None,529.2412674959996,None,a,0,0.6878043739998247,529.2412674959996,None,529.9583294069998,None,529.9583294069998,None,d,0.17867734000174096,529.9583294069998,None,530.1577508369992,None,,,,,sub-11,06/12/2002,2: Female,15/07/2023,001,1: right,2023_Jul_15_1333,[FINAL]_fmri_multiplication,2021.2.3,60.0668164
block2.xlsx,127.4,7.5,12.2,5 x 8,45,21,5 x 8 = 45,large-sized_high-interference,large-sized,high-interference,9,IncorrectRESP,d,0,1,1,1,0,9,9,9,,,,,,,,,,,,,,,533.2580796620023,None,533.7581734949999,None,535.7583916370022,None,536.5081867160006,None,536.7582192,None,536.7582192,None,a,0,0.7388527619987144,536.7582192,None,537.5244237010011,None,537.5244237010011,None,d,0.19657281200124999,537.5244237010011,None,537.7410184299988,None,,,,,sub-11,06/12/2002,2: Female,15/07/2023,001,1: right,2023_Jul_15_1333,[FINAL]_fmri_multiplication,2021.2.3,60.0668164
block2.xlsx,147.1,7.5,13.3,6 x 6,30,13,6 x 6 = 30,large-sized_low-interference,large-sized,low-interference,4,IncorrectRESP,d,0,1,1,1,0,10,10,10,,,,,,,,,,,,,,,549.9416008910011,None,550.4412765090019,None,552.4417122,None,553.1917520829993,None,553.4422926799998,None,553.4422926799998,None,a,0,0.5987379010002769,553.4422926799998,None,554.0595919480002,None,554.0595919480002,None,d,0.3334582360002969,554.0595919480002,None,554.4102181130002,None,,,,,sub-11,06/12/2002,2: Female,15/07/2023,001,1: right,2023_Jul_15_1333,[FINAL]_fmri_multiplication,2021.2.3,60.0668164
block2.xlsx,167.9,7.5,2.8,7 x 3,21,11,7 x 3 = 21,small-sized_high-interference,small-sized,high-interference,13,CorrectRESP,a,0,1,1,1,0,11,11,11,,,,,,,,,,,,,,,567.7248743010023,None,568.2249873410001,None,570.2249248590015,None,570.9749154269994,None,571.2251461,None,571.2251461,None,d,0,0.567820374,571.2251461,None,571.8249333730018,None,571.8249333730018,None,d,0.2641052760009188,571.8249333730018,None,572.1077767860006,None,,,,,sub-11,06/12/2002,2: Female,15/07/2023,001,1: right,2023_Jul_15_1333,[FINAL]_fmri_multiplication,2021.2.3,60.0668164
block2.xlsx,178.2,7.5,3.4,8 x 7,56,22,8 x 7 = 56,large-sized_high-interference,large-sized,high-interference,9,CorrectRESP,a,0,1,1,1,0,12,12,12,,,,,,,,,,,,,,,574.9080543259988,None,575.4085638979996,None,577.4078306379997,None,578.1582619059991,None,578.4087389,None,578.4087389,None,a,1,1.0643221239988634,578.4087389,None,579.4912407180018,None,579.4912407180018,None,d,0.5578262500021083,579.4912407180018,None,580.0742847469992,None,,,,,sub-11,06/12/2002,2: Female,15/07/2023,001,1: right,2023_Jul_15_1333,[FINAL]_fmri_multiplication,2021.2.3,60.0668164
block2.xlsx,189.1,7.5,3.9,3 x 8,24,12,3 x 8 = 24,small-sized_high-interference,small-sized,high-interference,13,CorrectRESP,a,0,1,1,1,0,13,13,13,,,,,,,,,,,,,,,583.4749168650014,None,583.9746303300017,None,585.9749420280023,None,586.7248580550004,None,586.9753224199994,None,586.9753224199994,None,d,0,0.5856385570004932,586.9753224199994,None,587.5917946250011,None,587.5917946250011,None,d,0.30527893899852643,587.5917946250011,None,587.9249684550014,None,,,,,sub-11,06/12/2002,2: Female,15/07/2023,001,1: right,2023_Jul_15_1333,[FINAL]_fmri_multiplication,2021.2.3,60.0668164
block2.xlsx,200.5,7.5,2,5 x 6,36,14,5 x 6 = 36,large-sized_low-interference,large-sized,low-interference,6,IncorrectRESP,d,0,1,1,1,0,14,14,14,,,,,,,,,,,,,,,591.8252460350013,None,592.3251023949997,None,594.3248798,None,595.0752320329993,None,595.3260041149988,None,595.3260041149988,None,a,0,0.9470844279967423,595.3260041149988,None,596.2897662450014,None,596.2897662450014,None,d,0.5512825900004827,596.2897662450014,None,596.8580167979999,None,,,,,sub-11,06/12/2002,2: Female,15/07/2023,001,1: right,2023_Jul_15_1333,[FINAL]_fmri_multiplication,2021.2.3,60.0668164
block2.xlsx,210,7.5,8.2,7 x 2,12,1,7 x 2 = 12,small-sized_low-interference,small-sized,low-interference,4,IncorrectRESP,d,0,1,1,1,0,15,15,15,,,,,,,,,,,,,,,598.8582298180008,None,599.3580756,None,601.3566297040015,None,602.1079851700015,None,602.3578155060022,None,602.3578155060022,None,a,0,0.8992401080031414,602.3578155060022,None,603.2747269659994,None,603.2747269659994,None,d,0.5903379839983245,603.2747269659994,None,603.8914771950003,None,,,,,sub-11,06/12/2002,2: Female,15/07/2023,001,1: right,2023_Jul_15_1333,[FINAL]_fmri_multiplication,2021.2.3,60.0668164
block2.xlsx,225.7,7.5,6.5,9 x 9,81,16,9 x 9 = 81,large-sized_low-interference,large-sized,low-interference,6,CorrectRESP,a,0,1,1,1,0,16,16,16,,,,,,,,,,,,,,,612.0911957030003,None,612.5913177049988,None,614.5916053889996,None,615.3416112769992,None,615.5912241840015,None,615.5912241840015,None,d,0,0.6578826490003848,615.5912241840015,None,616.2742444950018,None,616.2742444950018,None,d,0.310772494,616.2742444950018,None,616.6082097149992,None,,,,,sub-11,06/12/2002,2: Female,15/07/2023,001,1: right,2023_Jul_15_1333,[FINAL]_fmri_multiplication,2021.2.3,60.0668164
block2.xlsx,239.7,7.5,6.2,4 x 5,16,8,4 x 5 = 16,small-sized_high-interference,small-sized,high-interference,8,IncorrectRESP,d,0,1,1,1,0,17,17,17,,,,,,,,,,,,,,,623.1084520320001,None,623.6246608840011,None,625.6251647860008,None,626.375344,None,626.6257337800016,None,626.6257337800016,None,a,0,0.8872152969997842,626.6257337800016,None,627.5421334509992,None,627.5421334509992,None,d,0.3228682730004948,627.5421334509992,None,627.8913789149992,None,,,,,sub-11,06/12/2002,2: Female,15/07/2023,001,1: right,2023_Jul_15_1333,[FINAL]_fmri_multiplication,2021.2.3,60.0668164
block2.xlsx,253.4,7.5,11.8,8 x 2,16,5,8 x 2 = 16,small-sized_low-interference,small-sized,low-interference,7,CorrectRESP,a,0,1,1,1,0,18,18,18,,,,,,,,,,,,,,,634.0923502149999,None,634.5922377839997,None,636.5911387790002,None,637.3417215490008,None,637.5913252450009,None,637.5913252450009,None,d,0,0.4897610230000282,637.5913252450009,None,638.1079542719999,None,638.1079542719999,None,d,0.17312395900080446,638.1079542719999,None,638.3085402500001,None,,,,,sub-11,06/12/2002,2: Female,15/07/2023,001,1: right,2023_Jul_15_1333,[FINAL]_fmri_multiplication,2021.2.3,60.0668164
block2.xlsx,272.7,7.5,3.7,7 x 5,35,17,7 x 5 = 35,large-sized_low-interference,large-sized,low-interference,7,CorrectRESP,a,0,1,1,1,0,19,19,19,,,,,,,,,,,,,,,650.1077997259999,None,650.6081666159989,None,652.6082326659998,None,653.3577829390015,None,653.608448,None,653.608448,None,d,0,0.44053537500076345,653.608448,None,654.0734320060001,None,654.0734320060001,None,d,0.1996247949973622,654.0734320060001,None,654.2910911409999,None,,,,,sub-11,06/12/2002,2: Female,15/07/2023,001,1: right,2023_Jul_15_1333,[FINAL]_fmri_multiplication,2021.2.3,60.0668164
block2.xlsx,283.9,7.5,6,6 x 3,15,7,6 x 3 = 15,small-sized_high-interference,small-sized,high-interference,8,IncorrectRESP,d,0,1,1,1,0,20,20,20,,,,,,,,,,,,,,,657.9918802409993,None,658.4921508209991,None,660.4920883949999,None,661.2408581669988,None,661.4918361150012,None,661.4918361150012,None,a,0,0.5972728390006523,661.4918361150012,None,662.1082499229997,None,662.1082499229997,None,d,0.316853735,662.1082499229997,None,662.4415858800021,None,,,,,sub-11,06/12/2002,2: Female,15/07/2023,001,1: right,2023_Jul_15_1333,[FINAL]_fmri_multiplication,2021.2.3,60.0668164
block2.xlsx,297.4,7.5,6.1,9 x 3,24,19,9 x 3 = 24,large-sized_high-interference,large-sized,high-interference,9,IncorrectRESP,d,0,1,1,1,0,21,21,21,,,,,,,,,,,,,,,668.4417279939989,None,668.9414955,None,670.9416167939999,None,671.6917289,None,671.9415512230007,None,671.9415512230007,None,a,0,0.7715196470016963,671.9415512230007,None,672.7414463739988,None,672.7414463739988,None,d,0.26751458999933675,672.7414463739988,None,673.0417373269993,None,,,,,sub-11,06/12/2002,2: Female,15/07/2023,001,1: right,2023_Jul_15_1333,[FINAL]_fmri_multiplication,2021.2.3,60.0668164
block2.xlsx,311,7.5,5.1,4 x 4,16,4,4 x 4 = 16,small-sized_low-interference,small-sized,low-interference,5,CorrectRESP,a,0,1,1,1,0,22,22,22,,,,,,,,,,,,,,,679.1416883689999,None,679.6404201530022,None,681.6415557210021,None,682.3916995,None,682.6415913980018,None,682.6415913980018,None,a,1,0.7513931249995949,682.6415913980018,None,683.4250269410004,None,683.4250269410004,None,d,0.39191623399892705,683.4250269410004,None,683.8415133130002,None,,,,,sub-11,06/12/2002,2: Female,15/07/2023,001,1: right,2023_Jul_15_1333,[FINAL]_fmri_multiplication,2021.2.3,60.0668164
block2.xlsx,323.6,7.5,3.9,7 x 7,49,18,7 x 7 = 49,large-sized_low-interference,large-sized,low-interference,7,CorrectRESP,a,0,1,1,1,0,23,23,23,,,,,,,,,,,,,,,688.9415483,None,689.4413320080021,None,691.4415578879998,None,692.1909027559996,None,692.4420775370018,None,692.4420775370018,None,None,0,,692.4420775370018,None,694.4417405060012,None,694.4417405060012,None,d,0.20733264400041662,694.4417405060012,None,694.6676303249988,None,,,,,sub-11,06/12/2002,2: Female,15/07/2023,001,1: right,2023_Jul_15_1333,[FINAL]_fmri_multiplication,2021.2.3,60.0668164
block2.xlsx,,,,,,,,,,,,,,0,1,1,1,,,,,0,0,0,0,,,,,,,,,,,,,,,,,,,,,,,,,,,,,,,,,,,,,,698.5779232070017,None,698.5779232070017,None,sub-11,06/12/2002,2: Female,15/07/2023,001,1: right,2023_Jul_15_1333,[FINAL]_fmri_multiplication,2021.2.3,60.0668164
block2.xlsx,,,,,,,,,,,,,,0,1,1,1,,,,,1,0,1,0,,,,,,,,,,,,,,,,,,,,,,,,,,,,,,,,,,,,,,699.5932989169996,None,699.5932989169996,None,sub-11,06/12/2002,2: Female,15/07/2023,001,1: right,2023_Jul_15_1333,[FINAL]_fmri_multiplication,2021.2.3,60.0668164
block2.xlsx,,,,,,,,,,,,,,0,1,1,1,,,,,2,0,2,0,,,,,,,,,,,,,,,,,,,,,,,,,,,,,,,,,,,,,,700.5920613849994,None,700.5920613849994,None,sub-11,06/12/2002,2: Female,15/07/2023,001,1: right,2023_Jul_15_1333,[FINAL]_fmri_multiplication,2021.2.3,60.0668164
block2.xlsx,,,,,,,,,,,,,,0,1,1,1,,,,,3,0,3,0,,,,,,,,,,,,,,,,,,,,,,,,,,,,,,,,,,,,,,701.5926268,None,701.5926268,None,sub-11,06/12/2002,2: Female,15/07/2023,001,1: right,2023_Jul_15_1333,[FINAL]_fmri_multiplication,2021.2.3,60.0668164
block2.xlsx,,,,,,,,,,,,,,0,1,1,1,,,,,4,0,4,0,,,,,,,,,,,,,,,,,,,,,,,,,,,,,,,,,,,,,,702.5925418570005,None,702.5925418570005,None,sub-11,06/12/2002,2: Female,15/07/2023,001,1: right,2023_Jul_15_1333,[FINAL]_fmri_multiplication,2021.2.3,60.0668164
block2.xlsx,,,,,,,,,,,,,,0,1,1,1,,,,,5,0,5,0,,,,,,,,,,,,,,,,,,,,,,,,,,,,,,,,,,,,,,703.5920802690016,None,703.5920802690016,None,sub-11,06/12/2002,2: Female,15/07/2023,001,1: right,2023_Jul_15_1333,[FINAL]_fmri_multiplication,2021.2.3,60.0668164
block2.xlsx,,,,,,,,,,,,,,0,1,1,1,,,,,6,0,6,0,,,,,,,,,,,,,,,,,,,,,,,,,,,,,,,,,,,,,,704.5915847239994,None,704.5915847239994,None,sub-11,06/12/2002,2: Female,15/07/2023,001,1: right,2023_Jul_15_1333,[FINAL]_fmri_multiplication,2021.2.3,60.0668164
block2.xlsx,,,,,,,,,,,,,,0,1,1,1,,,,,7,0,7,0,,,,,,,,,,,,,,,,,,,,,,,,,,,,,,,,,,,,,,705.5914924,None,705.5914924,None,sub-11,06/12/2002,2: Female,15/07/2023,001,1: right,2023_Jul_15_1333,[FINAL]_fmri_multiplication,2021.2.3,60.0668164
block2.xlsx,,,,,,,,,,,,,,0,1,1,1,,,,,8,0,8,0,,,,,,,,,,,,,,,,,,,,,,,,,,,,,,,,,,,,,,706.5921250110005,None,706.5921250110005,None,sub-11,06/12/2002,2: Female,15/07/2023,001,1: right,2023_Jul_15_1333,[FINAL]_fmri_multiplication,2021.2.3,60.0668164
block2.xlsx,,,,,,,,,,,,,,0,1,1,1,,,,,9,0,9,0,,,,,,,,,,,,,,,,,,,,,,,,,,,,,,,,,,,,,,707.5911172410015,None,707.5911172410015,None,sub-11,06/12/2002,2: Female,15/07/2023,001,1: right,2023_Jul_15_1333,[FINAL]_fmri_multiplication,2021.2.3,60.0668164
block2.xlsx,,,,,,,,,,,,,,0,1,1,1,,,,,10,0,10,0,,,,,,,,,,,,,,,,,,,,,,,,,,,,,,,,,,,,,,708.5916595859999,None,708.5916595859999,None,sub-11,06/12/2002,2: Female,15/07/2023,001,1: right,2023_Jul_15_1333,[FINAL]_fmri_multiplication,2021.2.3,60.0668164
block2.xlsx,,,,,,,,,,,,,,0,1,1,1,,,,,11,0,11,0,,,,,,,,,,,,,,,,,,,,,,,,,,,,,,,,,,,,,,709.5921503560021,None,709.5921503560021,None,sub-11,06/12/2002,2: Female,15/07/2023,001,1: right,2023_Jul_15_1333,[FINAL]_fmri_multiplication,2021.2.3,60.0668164
block2.xlsx,,,,,,,,,,,,,,0,1,1,1,,,,,12,0,12,0,,,,,,,,,,,,,,,,,,,,,,,,,,,,,,,,,,,,,,710.5926051999995,None,710.5926051999995,None,sub-11,06/12/2002,2: Female,15/07/2023,001,1: right,2023_Jul_15_1333,[FINAL]_fmri_multiplication,2021.2.3,60.0668164
block2.xlsx,,,,,,,,,,,,,,0,1,1,1,,,,,13,0,13,0,,,,,,,,,,,,,,,,,,,,,,,,,,,,,,,,,,,,,,711.5920242259999,None,711.5920242259999,None,sub-11,06/12/2002,2: Female,15/07/2023,001,1: right,2023_Jul_15_1333,[FINAL]_fmri_multiplication,2021.2.3,60.0668164
block2.xlsx,,,,,,,,,,,,,,0,1,1,1,,,,,14,0,14,0,,,,,,,,,,,,,,,,,,,,,,,,,,,,,,,,,,,,,,712.5929631979998,None,712.5929631979998,None,sub-11,06/12/2002,2: Female,15/07/2023,001,1: right,2023_Jul_15_1333,[FINAL]_fmri_multiplication,2021.2.3,60.0668164
block2.xlsx,,,,,,,,,,,,,,0,1,1,1,,,,,15,0,15,0,,,,,,,,,,,,,,,,,,,,,,,,,,,,,,,,,,,,,,713.5920295700016,None,713.5920295700016,None,sub-11,06/12/2002,2: Female,15/07/2023,001,1: right,2023_Jul_15_1333,[FINAL]_fmri_multiplication,2021.2.3,60.0668164
block2.xlsx,,,,,,,,,,,,,,0,1,1,1,,,,,16,0,16,0,,,,,,,,,,,,,,,,,,,,,,,,,,,,,,,,,,,,,,714.5917412,None,714.5917412,None,sub-11,06/12/2002,2: Female,15/07/2023,001,1: right,2023_Jul_15_1333,[FINAL]_fmri_multiplication,2021.2.3,60.0668164
block2.xlsx,,,,,,,,,,,,,,0,1,1,1,,,,,17,0,17,0,,,,,,,,,,,,,,,,,,,,,,,,,,,,,,,,,,,,,,715.5921711180017,None,715.5921711180017,None,sub-11,06/12/2002,2: Female,15/07/2023,001,1: right,2023_Jul_15_1333,[FINAL]_fmri_multiplication,2021.2.3,60.0668164
block2.xlsx,,,,,,,,,,,,,,0,1,1,1,,,,,18,0,18,0,,,,,,,,,,,,,,,,,,,,,,,,,,,,,,,,,,,,,,716.5940091600023,None,716.5940091600023,None,sub-11,06/12/2002,2: Female,15/07/2023,001,1: right,2023_Jul_15_1333,[FINAL]_fmri_multiplication,2021.2.3,60.0668164
block2.xlsx,,,,,,,,,,,,,,0,1,1,1,,,,,19,0,19,0,,,,,,,,,,,,,,,,,,,,,,,,,,,,,,,,,,,,,,717.5917060130014,None,717.5917060130014,None,sub-11,06/12/2002,2: Female,15/07/2023,001,1: right,2023_Jul_15_1333,[FINAL]_fmri_multiplication,2021.2.3,60.0668164
block2.xlsx,,,,,,,,,,,,,,0,1,1,1,,,,,20,0,20,0,,,,,,,,,,,,,,,,,,,,,,,,,,,,,,,,,,,,,,718.5907853470017,None,718.5907853470017,None,sub-11,06/12/2002,2: Female,15/07/2023,001,1: right,2023_Jul_15_1333,[FINAL]_fmri_multiplication,2021.2.3,60.0668164
block2.xlsx,,,,,,,,,,,,,,0,1,1,1,,,,,21,0,21,0,,,,,,,,,,,,,,,,,,,,,,,,,,,,,,,,,,,,,,719.5919641830005,None,719.5919641830005,None,sub-11,06/12/2002,2: Female,15/07/2023,001,1: right,2023_Jul_15_1333,[FINAL]_fmri_multiplication,2021.2.3,60.0668164
block2.xlsx,,,,,,,,,,,,,,0,1,1,1,,,,,22,0,22,0,,,,,,,,,,,,,,,,,,,,,,,,,,,,,,,,,,,,,,720.5915212789987,None,720.5915212789987,None,sub-11,06/12/2002,2: Female,15/07/2023,001,1: right,2023_Jul_15_1333,[FINAL]_fmri_multiplication,2021.2.3,60.0668164
block2.xlsx,,,,,,,,,,,,,,0,1,1,1,,,,,23,0,23,0,,,,,,,,,,,,,,,,,,,,,,,,,,,,,,,,,,,,,,721.5914060030009,None,721.5914060030009,None,sub-11,06/12/2002,2: Female,15/07/2023,001,1: right,2023_Jul_15_1333,[FINAL]_fmri_multiplication,2021.2.3,60.0668164
block2.xlsx,,,,,,,,,,,,,,0,1,1,1,,,,,24,0,24,0,,,,,,,,,,,,,,,,,,,,,,,,,,,,,,,,,,,,,,722.5916792019998,None,722.5916792019998,None,sub-11,06/12/2002,2: Female,15/07/2023,001,1: right,2023_Jul_15_1333,[FINAL]_fmri_multiplication,2021.2.3,60.0668164
block2.xlsx,,,,,,,,,,,,,,0,1,1,1,,,,,25,0,25,0,,,,,,,,,,,,,,,,,,,,,,,,,,,,,,,,,,,,,,723.5928164819998,None,723.5928164819998,None,sub-11,06/12/2002,2: Female,15/07/2023,001,1: right,2023_Jul_15_1333,[FINAL]_fmri_multiplication,2021.2.3,60.0668164
block2.xlsx,,,,,,,,,,,,,,0,1,1,1,,,,,26,0,26,0,,,,,,,,,,,,,,,,,,,,,,,,,,,,,,,,,,,,,,724.5914180170003,None,724.5914180170003,None,sub-11,06/12/2002,2: Female,15/07/2023,001,1: right,2023_Jul_15_1333,[FINAL]_fmri_multiplication,2021.2.3,60.0668164
block2.xlsx,,,,,,,,,,,,,,0,1,1,1,,,,,27,0,27,0,,,,,,,,,,,,,,,,,,,,,,,,,,,,,,,,,,,,,,725.5928591640004,None,725.5928591640004,None,sub-11,06/12/2002,2: Female,15/07/2023,001,1: right,2023_Jul_15_1333,[FINAL]_fmri_multiplication,2021.2.3,60.0668164
block2.xlsx,,,,,,,,,,,,,,0,1,1,1,,,,,28,0,28,0,,,,,,,,,,,,,,,,,,,,,,,,,,,,,,,,,,,,,,726.5919133,None,726.5919133,None,sub-11,06/12/2002,2: Female,15/07/2023,001,1: right,2023_Jul_15_1333,[FINAL]_fmri_multiplication,2021.2.3,60.0668164
block2.xlsx,,,,,,,,,,,,,,0,1,1,1,,,,,29,0,29,0,,,,,,,,,,,,,,,,,,,,,,,,,,,,,,,,,,,,,,727.5920159340021,None,727.5920159340021,None,sub-11,06/12/2002,2: Female,15/07/2023,001,1: right,2023_Jul_15_1333,[FINAL]_fmri_multiplication,2021.2.3,60.0668164
block2.xlsx,,,,,,,,,,,,,,0,1,1,1,,,,,,,,,,,,,,,,,,,,,,,,,,,,,,,,,,,,,,,,,,,,,,,,,,sub-11,06/12/2002,2: Female,15/07/2023,001,1: right,2023_Jul_15_1333,[FINAL]_fmri_multiplication,2021.2.3,60.0668164
block3.xlsx,10,7.5,5.9,6 x 4,24,10,6 x 4 = 24,small-sized_high-interference,small-sized,high-interference,12,CorrectRESP,a,0,2,2,2,0,0,0,0,,,,,,,,,,,,,728.5927983559995,None,738.6146290979996,None,739.0912104,None,741.0916254,None,741.8416666910016,None,742.0915271,None,742.0915271,None,d,0,1.2934368339992943,742.0915271,None,743.4076954070006,None,743.4076954070006,None,d,0.25733404000129667,743.4076954070006,None,743.6913132510017,None,,,,,sub-11,06/12/2002,2: Female,15/07/2023,001,1: right,2023_Jul_15_1333,[FINAL]_fmri_multiplication,2021.2.3,60.0668164
block3.xlsx,23.4,7.5,2,6 x 6,30,13,6 x 6 = 30,large-sized_low-interference,large-sized,low-interference,4,IncorrectRESP,d,0,2,2,2,0,1,1,1,,,,,,,,,,,,,,,749.5916156070016,None,750.0914127239994,None,752.0912501,None,752.8416058360017,None,753.0912551149995,None,753.0912551149995,None,a,0,0.6378146089991787,753.0912551149995,None,753.7570945219995,None,753.7570945219995,None,d,0.25185132600017823,753.7570945219995,None,754.0414865220009,None,,,,,sub-11,06/12/2002,2: Female,15/07/2023,001,1: right,2023_Jul_15_1333,[FINAL]_fmri_multiplication,2021.2.3,60.0668164
block3.xlsx,32.9,7.5,3.2,2 x 9,18,2,2 x 9 = 18,small-sized_low-interference,small-sized,low-interference,7,CorrectRESP,a,0,2,2,2,0,2,2,2,,,,,,,,,,,,,,,756.0410300799995,None,756.5415259440015,None,758.5415313490012,None,759.2915973029994,None,759.5406401,None,759.5406401,None,d,0,0.4283980399995926,759.5406401,None,759.9910669189994,None,759.9910669189994,None,d,0.21791524600121193,759.9910669189994,None,760.2416701330003,None,,,,,sub-11,06/12/2002,2: Female,15/07/2023,001,1: right,2023_Jul_15_1333,[FINAL]_fmri_multiplication,2021.2.3,60.0668164
block3.xlsx,43.6,7.5,6,3 x 4,12,9,3 x 4 = 12,small-sized_high-interference,small-sized,high-interference,10,CorrectRESP,a,0,2,2,2,0,3,3,3,,,,,,,,,,,,,,,763.4416785729991,None,763.9418983309988,None,765.9420604480001,None,766.6920117709997,None,766.9423814430011,None,766.9423814430011,None,a,1,1.2745937780018721,766.9423814430011,None,768.2414982129994,None,768.2414982129994,None,d,0.28745161299957545,768.2414982129994,None,768.5587497400011,None,,,,,sub-11,06/12/2002,2: Female,15/07/2023,001,1: right,2023_Jul_15_1333,[FINAL]_fmri_multiplication,2021.2.3,60.0668164
block3.xlsx,57.1,7.5,13.3,7 x 5,40,17,7 x 5 = 40,large-sized_low-interference,large-sized,low-interference,7,IncorrectRESP,d,0,2,2,2,0,4,4,4,,,,,,,,,,,,,,,774.5581939000003,None,775.0580989500013,None,777.0583746,None,777.8077603630009,None,778.0589998370015,None,778.0589998370015,None,a,0,0.6859548300017195,778.0589998370015,None,778.7771152419991,None,778.7771152419991,None,d,0.15987617800055887,778.7771152419991,None,778.9574858230008,None,,,,,sub-11,06/12/2002,2: Female,15/07/2023,001,1: right,2023_Jul_15_1333,[FINAL]_fmri_multiplication,2021.2.3,60.0668164
block3.xlsx,77.9,7.5,2,8 x 7,56,22,8 x 7 = 56,large-sized_high-interference,large-sized,high-interference,9,CorrectRESP,a,0,2,2,2,0,5,5,5,,,,,,,,,,,,,,,792.2577962389987,None,792.7581293980002,None,794.7578919299995,None,795.5082812709989,None,795.7591154420006,None,795.7591154420006,None,a,1,0.9219671659993764,795.7591154420006,None,796.7077547199988,None,796.7077547199988,None,a,0.7893144820009184,796.7077547199988,None,797.5250750420018,None,,,,,sub-11,06/12/2002,2: Female,15/07/2023,001,1: right,2023_Jul_15_1333,[FINAL]_fmri_multiplication,2021.2.3,60.0668164
block3.xlsx,87.4,7.5,2.6,9 x 9,81,16,9 x 9 = 81,large-sized_low-interference,large-sized,low-interference,6,CorrectRESP,a,0,2,2,2,0,6,6,6,,,,,,,,,,,,,,,799.5251258179997,None,800.0252098450001,None,802.0253396,None,802.7754615369995,None,803.0253123690018,None,803.0253123690018,None,d,0,0.7116687350026041,803.0253123690018,None,803.7568708600011,None,803.7568708600011,None,d,0.22809713199967518,803.7568708600011,None,804.0082277250003,None,,,,,sub-11,06/12/2002,2: Female,15/07/2023,001,1: right,2023_Jul_15_1333,[FINAL]_fmri_multiplication,2021.2.3,60.0668164
block3.xlsx,97.5,7.5,2.7,4 x 5,20,8,4 x 5 = 20,small-sized_high-interference,small-sized,high-interference,8,CorrectRESP,a,0,2,2,2,0,7,7,7,,,,,,,,,,,,,,,806.6088585440011,None,807.1084257290022,None,809.1083735899992,None,809.8582036,None,810.1082370709992,None,810.1082370709992,None,d,0,0.38085000600040075,810.1082370709992,None,810.5079684369994,None,810.5079684369994,None,d,0.19709869500002242,810.5079684369994,None,810.7244948150001,None,,,,,sub-11,06/12/2002,2: Female,15/07/2023,001,1: right,2023_Jul_15_1333,[FINAL]_fmri_multiplication,2021.2.3,60.0668164
block3.xlsx,107.7,7.5,8.4,9 x 3,24,19,9 x 3 = 24,large-sized_high-interference,large-sized,high-interference,9,IncorrectRESP,d,0,2,2,2,0,8,8,8,,,,,,,,,,,,,,,813.4249153210003,None,813.9249658059998,None,815.9249521279999,None,816.6748971800007,None,816.9254020139997,None,816.9254020139997,None,a,0,0.5235549979988718,816.9254020139997,None,817.4746053669987,None,817.4746053669987,None,d,0.31038611300027696,817.4746053669987,None,817.8078090500021,None,,,,,sub-11,06/12/2002,2: Female,15/07/2023,001,1: right,2023_Jul_15_1333,[FINAL]_fmri_multiplication,2021.2.3,60.0668164
block3.xlsx,123.6,7.5,2.2,9 x 5,45,15,9 x 5 = 45,large-sized_low-interference,large-sized,low-interference,6,CorrectRESP,a,0,2,2,2,0,9,9,9,,,,,,,,,,,,,,,826.2078139,None,826.7084143989996,None,828.7081604990017,None,829.4744086489991,None,829.7256537020003,None,829.7256537020003,None,d,0,0.4993237870003213,829.7256537020003,None,830.2582432070012,None,830.2582432070012,None,d,0.19073298200237332,830.2582432070012,None,830.4746543820002,None,,,,,sub-11,06/12/2002,2: Female,15/07/2023,001,1: right,2023_Jul_15_1333,[FINAL]_fmri_multiplication,2021.2.3,60.0668164
block3.xlsx,133.3,7.5,9.7,4 x 4,16,4,4 x 4 = 16,small-sized_low-interference,small-sized,low-interference,5,CorrectRESP,a,0,2,2,2,0,10,10,10,,,,,,,,,,,,,,,832.6750003320012,None,833.1751425719995,None,835.1781849,None,835.921437,None,836.1680058,None,836.1680058,None,d,0,0.4170255659992108,836.1680058,None,836.6081078919997,None,836.6081078919997,None,d,0.16097716000149376,836.6081078919997,None,836.7915498260008,None,,,,,sub-11,06/12/2002,2: Female,15/07/2023,001,1: right,2023_Jul_15_1333,[FINAL]_fmri_multiplication,2021.2.3,60.0668164
block3.xlsx,150.5,7.5,5.4,8 x 4,28,24,8 x 4 = 28,large-sized_high-interference,large-sized,high-interference,25,IncorrectRESP,d,0,2,2,2,0,11,11,11,,,,,,,,,,,,,,,846.4916115109991,None,846.9912514140015,None,848.9917509480001,None,849.7416055030008,None,849.9919139,None,849.9919139,None,a,0,0.665137878,849.9919139,None,850.6745989510018,None,850.6745989510018,None,d,0.6863702559967351,850.6745989510018,None,851.3916748270021,None,,,,,sub-11,06/12/2002,2: Female,15/07/2023,001,1: right,2023_Jul_15_1333,[FINAL]_fmri_multiplication,2021.2.3,60.0668164
block3.xlsx,163.4,7.5,10.5,8 x 2,18,5,8 x 2 = 18,small-sized_low-interference,small-sized,low-interference,7,IncorrectRESP,d,0,2,2,2,0,12,12,12,,,,,,,,,,,,,,,856.7915027570016,None,857.291708,None,859.2911263060014,None,860.0410261620018,None,860.2911352010015,None,860.2911352010015,None,d,1,1.357936893000442,860.2911352010015,None,861.6740958539995,None,861.6740958539995,None,a,1.830976979999832,861.6740958539995,None,863.5243876140012,None,,,,,sub-11,06/12/2002,2: Female,15/07/2023,001,1: right,2023_Jul_15_1333,[FINAL]_fmri_multiplication,2021.2.3,60.0668164
block3.xlsx,181.4,7.5,3.5,7 x 6,48,23,7 x 6 = 48,large-sized_high-interference,large-sized,high-interference,22,IncorrectRESP,d,0,2,2,2,0,13,13,13,,,,,,,,,,,,,,,874.0252858509994,None,874.5252282350011,None,876.5253900850003,None,877.2752616710022,None,877.5257493999998,None,877.5257493999998,None,a,0,1.7792371659998025,877.5257493999998,None,879.3230246009989,None,879.3230246009989,None,a,0.6858689939981559,879.3230246009989,None,880.0406771359994,None,,,,,sub-11,06/12/2002,2: Female,15/07/2023,001,1: right,2023_Jul_15_1333,[FINAL]_fmri_multiplication,2021.2.3,60.0668164
block3.xlsx,192.4,7.5,11.8,5 x 6,30,14,5 x 6 = 30,large-sized_low-interference,large-sized,low-interference,6,CorrectRESP,a,0,2,2,2,0,14,14,14,,,,,,,,,,,,,,,883.5415758880008,None,884.0414825820008,None,886.0416922820004,None,886.7916255720011,None,887.0420320689991,None,887.0420320689991,None,a,1,1.439040039000247,887.0420320689991,None,888.5077012210022,None,888.5077012210022,None,d,0.46926429,888.5077012210022,None,889.0083995,None,,,,,sub-11,06/12/2002,2: Female,15/07/2023,001,1: right,2023_Jul_15_1333,[FINAL]_fmri_multiplication,2021.2.3,60.0668164
block3.xlsx,211.7,7.5,3.7,4 x 9,36,20,4 x 9 = 36,large-sized_high-interference,large-sized,high-interference,9,CorrectRESP,a,0,2,2,2,0,15,15,15,,,,,,,,,,,,,,,900.8082178,None,901.3078137560005,None,903.3083699400013,None,904.0584783,None,904.3084366360017,None,904.3084366360017,None,d,0,1.1005520979997527,904.3084366360017,None,905.4403632210015,None,905.4403632210015,None,d,0.5045831309980713,905.4403632210015,None,905.9753920680014,None,,,,,sub-11,06/12/2002,2: Female,15/07/2023,001,1: right,2023_Jul_15_1333,[FINAL]_fmri_multiplication,2021.2.3,60.0668164
block3.xlsx,222.9,7.5,2.5,7 x 7,56,18,7 x 7 = 56,large-sized_low-interference,large-sized,low-interference,7,IncorrectRESP,d,0,2,2,2,0,16,16,16,,,,,,,,,,,,,,,909.6748778149995,None,910.1750037170023,None,912.1753662,None,912.9253179190018,None,913.1752828,None,913.1752828,None,a,0,1.4416869240012602,913.1752828,None,914.6411999,None,914.6411999,None,d,0.3597702389997721,914.6411999,None,915.0247445490022,None,,,,,sub-11,06/12/2002,2: Female,15/07/2023,001,1: right,2023_Jul_15_1333,[FINAL]_fmri_multiplication,2021.2.3,60.0668164
block3.xlsx,232.9,7.5,9,6 x 3,15,7,6 x 3 = 15,small-sized_high-interference,small-sized,high-interference,8,IncorrectRESP,d,0,2,2,2,0,17,17,17,,,,,,,,,,,,,,,917.5248704869991,None,918.0245901970011,None,920.0250482789997,None,920.7748920459999,None,921.0256425080006,None,921.0256425080006,None,a,0,0.6953891030025261,921.0256425080006,None,921.7410303210017,None,921.7410303210017,None,d,0.31604525999864563,921.7410303210017,None,922.0741890249992,None,,,,,sub-11,06/12/2002,2: Female,15/07/2023,001,1: right,2023_Jul_15_1333,[FINAL]_fmri_multiplication,2021.2.3,60.0668164
block3.xlsx,249.4,7.5,9.5,7 x 2,12,1,7 x 2 = 12,small-sized_low-interference,small-sized,low-interference,4,IncorrectRESP,d,0,2,2,2,0,18,18,18,,,,,,,,,,,,,,,931.0748486449993,None,931.5750760449992,None,933.5748940150006,None,934.3240392820007,None,934.5749012,None,934.5749012,None,a,0,0.6662079679990711,934.5749012,None,935.2571294990012,None,935.2571294990012,None,d,0.2638930659995822,935.2571294990012,None,935.5411292829995,None,,,,,sub-11,06/12/2002,2: Female,15/07/2023,001,1: right,2023_Jul_15_1333,[FINAL]_fmri_multiplication,2021.2.3,60.0668164
block3.xlsx,266.4,7.5,11.1,5 x 8,40,21,5 x 8 = 40,large-sized_high-interference,large-sized,high-interference,9,CorrectRESP,a,0,2,2,2,0,19,19,19,,,,,,,,,,,,,,,945.0381776270006,None,945.5336524,None,947.5420248580012,None,948.2919733660019,None,948.5421047060008,None,948.5421047060008,None,d,0,0.41894713700094144,948.5421047060008,None,948.9915365750021,None,948.9915365750021,None,d,0.24959054800274316,948.9915365750021,None,949.2585499660017,None,,,,,sub-11,06/12/2002,2: Female,15/07/2023,001,1: right,2023_Jul_15_1333,[FINAL]_fmri_multiplication,2021.2.3,60.0668164
block3.xlsx,285,7.5,3.8,3 x 8,21,12,3 x 8 = 21,small-sized_high-interference,small-sized,high-interference,13,IncorrectRESP,d,0,2,2,2,0,20,20,20,,,,,,,,,,,,,,,960.3582023029994,None,960.8582645269998,None,962.8579318,None,963.6081196800005,None,963.8738726289994,None,963.8738726289994,None,a,0,0.6391626330005238,963.8738726289994,None,964.5409951069996,None,964.5409951069996,None,d,0.2759545939989039,964.5409951069996,None,964.8411156,None,,,,,sub-11,06/12/2002,2: Female,15/07/2023,001,1: right,2023_Jul_15_1333,[FINAL]_fmri_multiplication,2021.2.3,60.0668164
block3.xlsx,296.3,7.5,11.2,5 x 5,25,3,5 x 5 = 25,small-sized_low-interference,small-sized,low-interference,3,CorrectRESP,a,0,2,2,2,0,21,21,21,,,,,,,,,,,,,,,968.6411864760012,None,969.1415238000009,None,971.1412310890009,None,971.8913865880022,None,972.1421255259993,None,972.1421255259993,None,d,0,0.6588262400000531,972.1421255259993,None,972.8226291169995,None,972.8226291169995,None,d,0.29041064600096433,972.8226291169995,None,973.1417158340009,None,,,,,sub-11,06/12/2002,2: Female,15/07/2023,001,1: right,2023_Jul_15_1333,[FINAL]_fmri_multiplication,2021.2.3,60.0668164
block3.xlsx,315,7.5,2.6,7 x 3,24,11,7 x 3 = 24,small-sized_high-interference,small-sized,high-interference,13,IncorrectRESP,d,0,2,2,2,0,22,22,22,,,,,,,,,,,,,,,984.3419284779993,None,984.8411538590008,None,986.8410789,None,987.5915936009987,None,987.8415165549995,None,987.8415165549995,None,a,0,0.6155948279993027,987.8415165549995,None,988.4747870329993,None,988.4747870329993,None,d,0.22230101699824445,988.4747870329993,None,988.7249900499992,None,,,,,sub-11,06/12/2002,2: Female,15/07/2023,001,1: right,2023_Jul_15_1333,[FINAL]_fmri_multiplication,2021.2.3,60.0668164
block3.xlsx,325.1,7.5,2.4,6 x 2,10,6,6 x 2 = 10,small-sized_low-interference,small-sized,low-interference,3,IncorrectRESP,d,0,2,2,2,0,23,23,23,,,,,,,,,,,,,,,991.3244501770023,None,991.8251598200004,None,993.8248733540022,None,994.5748690370019,None,994.8250900540006,None,994.8250900540006,None,a,0,0.8399665069991897,994.8250900540006,None,995.6912020210002,None,995.6912020210002,None,d,0.4298265020006511,995.6912020210002,None,996.1411286,None,,,,,sub-11,06/12/2002,2: Female,15/07/2023,001,1: right,2023_Jul_15_1333,[FINAL]_fmri_multiplication,2021.2.3,60.0668164
block3.xlsx,,,,,,,,,,,,,,0,2,2,2,,,,,0,0,0,0,,,,,,,,,,,,,,,,,,,,,,,,,,,,,,,,,,,,,,998.5423795470015,None,998.5423795470015,None,sub-11,06/12/2002,2: Female,15/07/2023,001,1: right,2023_Jul_15_1333,[FINAL]_fmri_multiplication,2021.2.3,60.0668164
block3.xlsx,,,,,,,,,,,,,,0,2,2,2,,,,,1,0,1,0,,,,,,,,,,,,,,,,,,,,,,,,,,,,,,,,,,,,,,999.5570295670004,None,999.5570295670004,None,sub-11,06/12/2002,2: Female,15/07/2023,001,1: right,2023_Jul_15_1333,[FINAL]_fmri_multiplication,2021.2.3,60.0668164
block3.xlsx,,,,,,,,,,,,,,0,2,2,2,,,,,2,0,2,0,,,,,,,,,,,,,,,,,,,,,,,,,,,,,,,,,,,,,,1000.5583487090007,None,1000.5583487090007,None,sub-11,06/12/2002,2: Female,15/07/2023,001,1: right,2023_Jul_15_1333,[FINAL]_fmri_multiplication,2021.2.3,60.0668164
block3.xlsx,,,,,,,,,,,,,,0,2,2,2,,,,,3,0,3,0,,,,,,,,,,,,,,,,,,,,,,,,,,,,,,,,,,,,,,1001.5593913789999,None,1001.5593913789999,None,sub-11,06/12/2002,2: Female,15/07/2023,001,1: right,2023_Jul_15_1333,[FINAL]_fmri_multiplication,2021.2.3,60.0668164
block3.xlsx,,,,,,,,,,,,,,0,2,2,2,,,,,4,0,4,0,,,,,,,,,,,,,,,,,,,,,,,,,,,,,,,,,,,,,,1002.5590356889988,None,1002.5590356889988,None,sub-11,06/12/2002,2: Female,15/07/2023,001,1: right,2023_Jul_15_1333,[FINAL]_fmri_multiplication,2021.2.3,60.0668164
block3.xlsx,,,,,,,,,,,,,,0,2,2,2,,,,,5,0,5,0,,,,,,,,,,,,,,,,,,,,,,,,,,,,,,,,,,,,,,1003.558446433999,None,1003.558446433999,None,sub-11,06/12/2002,2: Female,15/07/2023,001,1: right,2023_Jul_15_1333,[FINAL]_fmri_multiplication,2021.2.3,60.0668164
block3.xlsx,,,,,,,,,,,,,,0,2,2,2,,,,,6,0,6,0,,,,,,,,,,,,,,,,,,,,,,,,,,,,,,,,,,,,,,1004.5594571580004,None,1004.5594571580004,None,sub-11,06/12/2002,2: Female,15/07/2023,001,1: right,2023_Jul_15_1333,[FINAL]_fmri_multiplication,2021.2.3,60.0668164
block3.xlsx,,,,,,,,,,,,,,0,2,2,2,,,,,7,0,7,0,,,,,,,,,,,,,,,,,,,,,,,,,,,,,,,,,,,,,,1005.5591984710009,None,1005.5591984710009,None,sub-11,06/12/2002,2: Female,15/07/2023,001,1: right,2023_Jul_15_1333,[FINAL]_fmri_multiplication,2021.2.3,60.0668164
block3.xlsx,,,,,,,,,,,,,,0,2,2,2,,,,,8,0,8,0,,,,,,,,,,,,,,,,,,,,,,,,,,,,,,,,,,,,,,1006.5606488970006,None,1006.5606488970006,None,sub-11,06/12/2002,2: Female,15/07/2023,001,1: right,2023_Jul_15_1333,[FINAL]_fmri_multiplication,2021.2.3,60.0668164
block3.xlsx,,,,,,,,,,,,,,0,2,2,2,,,,,9,0,9,0,,,,,,,,,,,,,,,,,,,,,,,,,,,,,,,,,,,,,,1007.5577359800009,None,1007.5577359800009,None,sub-11,06/12/2002,2: Female,15/07/2023,001,1: right,2023_Jul_15_1333,[FINAL]_fmri_multiplication,2021.2.3,60.0668164
block3.xlsx,,,,,,,,,,,,,,0,2,2,2,,,,,10,0,10,0,,,,,,,,,,,,,,,,,,,,,,,,,,,,,,,,,,,,,,1008.5587602800006,None,1008.5587602800006,None,sub-11,06/12/2002,2: Female,15/07/2023,001,1: right,2023_Jul_15_1333,[FINAL]_fmri_multiplication,2021.2.3,60.0668164
block3.xlsx,,,,,,,,,,,,,,0,2,2,2,,,,,11,0,11,0,,,,,,,,,,,,,,,,,,,,,,,,,,,,,,,,,,,,,,1009.5587836100021,None,1009.5587836100021,None,sub-11,06/12/2002,2: Female,15/07/2023,001,1: right,2023_Jul_15_1333,[FINAL]_fmri_multiplication,2021.2.3,60.0668164
block3.xlsx,,,,,,,,,,,,,,0,2,2,2,,,,,12,0,12,0,,,,,,,,,,,,,,,,,,,,,,,,,,,,,,,,,,,,,,1010.5601962059991,None,1010.5601962059991,None,sub-11,06/12/2002,2: Female,15/07/2023,001,1: right,2023_Jul_15_1333,[FINAL]_fmri_multiplication,2021.2.3,60.0668164
block3.xlsx,,,,,,,,,,,,,,0,2,2,2,,,,,13,0,13,0,,,,,,,,,,,,,,,,,,,,,,,,,,,,,,,,,,,,,,1011.5602282370019,None,1011.5602282370019,None,sub-11,06/12/2002,2: Female,15/07/2023,001,1: right,2023_Jul_15_1333,[FINAL]_fmri_multiplication,2021.2.3,60.0668164
block3.xlsx,,,,,,,,,,,,,,0,2,2,2,,,,,14,0,14,0,,,,,,,,,,,,,,,,,,,,,,,,,,,,,,,,,,,,,,1012.5606363100014,None,1012.5606363100014,None,sub-11,06/12/2002,2: Female,15/07/2023,001,1: right,2023_Jul_15_1333,[FINAL]_fmri_multiplication,2021.2.3,60.0668164
block3.xlsx,,,,,,,,,,,,,,0,2,2,2,,,,,15,0,15,0,,,,,,,,,,,,,,,,,,,,,,,,,,,,,,,,,,,,,,1013.5592600119999,None,1013.5592600119999,None,sub-11,06/12/2002,2: Female,15/07/2023,001,1: right,2023_Jul_15_1333,[FINAL]_fmri_multiplication,2021.2.3,60.0668164
block3.xlsx,,,,,,,,,,,,,,0,2,2,2,,,,,16,0,16,0,,,,,,,,,,,,,,,,,,,,,,,,,,,,,,,,,,,,,,1014.5596745580006,None,1014.5596745580006,None,sub-11,06/12/2002,2: Female,15/07/2023,001,1: right,2023_Jul_15_1333,[FINAL]_fmri_multiplication,2021.2.3,60.0668164
block3.xlsx,,,,,,,,,,,,,,0,2,2,2,,,,,17,0,17,0,,,,,,,,,,,,,,,,,,,,,,,,,,,,,,,,,,,,,,1015.5591681299993,None,1015.5591681299993,None,sub-11,06/12/2002,2: Female,15/07/2023,001,1: right,2023_Jul_15_1333,[FINAL]_fmri_multiplication,2021.2.3,60.0668164
block3.xlsx,,,,,,,,,,,,,,0,2,2,2,,,,,18,0,18,0,,,,,,,,,,,,,,,,,,,,,,,,,,,,,,,,,,,,,,1016.5587870220006,None,1016.5587870220006,None,sub-11,06/12/2002,2: Female,15/07/2023,001,1: right,2023_Jul_15_1333,[FINAL]_fmri_multiplication,2021.2.3,60.0668164
block3.xlsx,,,,,,,,,,,,,,0,2,2,2,,,,,19,0,19,0,,,,,,,,,,,,,,,,,,,,,,,,,,,,,,,,,,,,,,1017.5592507149995,None,1017.5592507149995,None,sub-11,06/12/2002,2: Female,15/07/2023,001,1: right,2023_Jul_15_1333,[FINAL]_fmri_multiplication,2021.2.3,60.0668164
block3.xlsx,,,,,,,,,,,,,,0,2,2,2,,,,,20,0,20,0,,,,,,,,,,,,,,,,,,,,,,,,,,,,,,,,,,,,,,1018.5588814670009,None,1018.5588814670009,None,sub-11,06/12/2002,2: Female,15/07/2023,001,1: right,2023_Jul_15_1333,[FINAL]_fmri_multiplication,2021.2.3,60.0668164
block3.xlsx,,,,,,,,,,,,,,0,2,2,2,,,,,21,0,21,0,,,,,,,,,,,,,,,,,,,,,,,,,,,,,,,,,,,,,,1019.5589955510004,None,1019.5589955510004,None,sub-11,06/12/2002,2: Female,15/07/2023,001,1: right,2023_Jul_15_1333,[FINAL]_fmri_multiplication,2021.2.3,60.0668164
block3.xlsx,,,,,,,,,,,,,,0,2,2,2,,,,,22,0,22,0,,,,,,,,,,,,,,,,,,,,,,,,,,,,,,,,,,,,,,1020.5565601999988,None,1020.5565601999988,None,sub-11,06/12/2002,2: Female,15/07/2023,001,1: right,2023_Jul_15_1333,[FINAL]_fmri_multiplication,2021.2.3,60.0668164
block3.xlsx,,,,,,,,,,,,,,0,2,2,2,,,,,23,0,23,0,,,,,,,,,,,,,,,,,,,,,,,,,,,,,,,,,,,,,,1021.5580713700001,None,1021.5580713700001,None,sub-11,06/12/2002,2: Female,15/07/2023,001,1: right,2023_Jul_15_1333,[FINAL]_fmri_multiplication,2021.2.3,60.0668164
block3.xlsx,,,,,,,,,,,,,,0,2,2,2,,,,,24,0,24,0,,,,,,,,,,,,,,,,,,,,,,,,,,,,,,,,,,,,,,1022.5576790129999,None,1022.5576790129999,None,sub-11,06/12/2002,2: Female,15/07/2023,001,1: right,2023_Jul_15_1333,[FINAL]_fmri_multiplication,2021.2.3,60.0668164
block3.xlsx,,,,,,,,,,,,,,0,2,2,2,,,,,25,0,25,0,,,,,,,,,,,,,,,,,,,,,,,,,,,,,,,,,,,,,,1023.5580624840004,None,1023.5580624840004,None,sub-11,06/12/2002,2: Female,15/07/2023,001,1: right,2023_Jul_15_1333,[FINAL]_fmri_multiplication,2021.2.3,60.0668164
block3.xlsx,,,,,,,,,,,,,,0,2,2,2,,,,,26,0,26,0,,,,,,,,,,,,,,,,,,,,,,,,,,,,,,,,,,,,,,1024.5570711379987,None,1024.5570711379987,None,sub-11,06/12/2002,2: Female,15/07/2023,001,1: right,2023_Jul_15_1333,[FINAL]_fmri_multiplication,2021.2.3,60.0668164
block3.xlsx,,,,,,,,,,,,,,0,2,2,2,,,,,27,0,27,0,,,,,,,,,,,,,,,,,,,,,,,,,,,,,,,,,,,,,,1025.5584790390021,None,1025.5584790390021,None,sub-11,06/12/2002,2: Female,15/07/2023,001,1: right,2023_Jul_15_1333,[FINAL]_fmri_multiplication,2021.2.3,60.0668164
block3.xlsx,,,,,,,,,,,,,,0,2,2,2,,,,,28,0,28,0,,,,,,,,,,,,,,,,,,,,,,,,,,,,,,,,,,,,,,1026.5581568710004,None,1026.5581568710004,None,sub-11,06/12/2002,2: Female,15/07/2023,001,1: right,2023_Jul_15_1333,[FINAL]_fmri_multiplication,2021.2.3,60.0668164
block3.xlsx,,,,,,,,,,,,,,0,2,2,2,,,,,29,0,29,0,,,,,,,,,,,,,,,,,,,,,,,,,,,,,,,,,,,,,,1027.559424561001,None,1027.559424561001,None,sub-11,06/12/2002,2: Female,15/07/2023,001,1: right,2023_Jul_15_1333,[FINAL]_fmri_multiplication,2021.2.3,60.0668164
block3.xlsx,,,,,,,,,,,,,,0,2,2,2,,,,,,,,,,,,,,,,,,,,,,,,,,,,,,,,,,,,,,,,,,,,,,,,,,sub-11,06/12/2002,2: Female,15/07/2023,001,1: right,2023_Jul_15_1333,[FINAL]_fmri_multiplication,2021.2.3,60.0668164
block4.xlsx,10,7.5,8.4,5 x 6,36,14,5 x 6 = 36,large-sized_low-interference,large-sized,low-interference,6,IncorrectRESP,d,0,3,3,3,0,0,0,0,,,,,,,,,,,,,1028.559154466002,None,1038.579832790001,None,1039.0579617799995,None,1041.058253727002,None,1041.8084002860014,None,1042.059724177001,None,1042.059724177001,None,a,0,0.9813761559998966,1042.059724177001,None,1043.058706857002,None,1043.058706857002,None,d,0.3342557999967539,1043.058706857002,None,1043.4241343440008,None,,,,,sub-11,06/12/2002,2: Female,15/07/2023,001,1: right,2023_Jul_15_1333,[FINAL]_fmri_multiplication,2021.2.3,60.0668164
block4.xlsx,25.9,7.5,2.6,6 x 2,12,6,6 x 2 = 12,small-sized_low-interference,small-sized,low-interference,3,CorrectRESP,a,0,3,3,3,0,1,1,1,,,,,,,,,,,,,,,1051.824507862002,None,1052.325139978002,None,1054.3252271080019,None,1055.0751153240017,None,1055.3246410809988,None,1055.3246410809988,None,d,0,0.4603300170019793,1055.3246410809988,None,1055.8079064470003,None,1055.8079064470003,None,d,0.17706985199765768,1055.8079064470003,None,1056.007843563999,None,,,,,sub-11,06/12/2002,2: Female,15/07/2023,001,1: right,2023_Jul_15_1333,[FINAL]_fmri_multiplication,2021.2.3,60.0668164
block4.xlsx,36,7.5,3.8,8 x 4,32,24,8 x 4 = 32,large-sized_high-interference,large-sized,high-interference,25,CorrectRESP,a,0,3,3,3,0,2,2,2,,,,,,,,,,,,,,,1058.608288020001,None,1059.1075335690002,None,1061.1082858049995,None,1061.8582383579997,None,1062.1075736029998,None,1062.1075736029998,None,a,1,0.7574877290026052,1062.1075736029998,None,1062.8911256220017,None,1062.8911256220017,None,d,0.22196600600000238,1062.8911256220017,None,1063.141531903002,None,,,,,sub-11,06/12/2002,2: Female,15/07/2023,001,1: right,2023_Jul_15_1333,[FINAL]_fmri_multiplication,2021.2.3,60.0668164
block4.xlsx,47.3,7.5,3.8,9 x 5,40,15,9 x 5 = 40,large-sized_low-interference,large-sized,low-interference,6,IncorrectRESP,d,0,3,3,3,0,3,3,3,,,,,,,,,,,,,,,1066.9410582650016,None,1067.4419250899991,None,1069.4410848869993,None,1070.1911578920008,None,1070.441829317002,None,1070.441829317002,None,a,0,0.647297351,1070.441829317002,None,1071.1077169599994,None,1071.1077169599994,None,d,0.17328107100183843,1071.1077169599994,None,1071.3081772240002,None,,,,,sub-11,06/12/2002,2: Female,15/07/2023,001,1: right,2023_Jul_15_1333,[FINAL]_fmri_multiplication,2021.2.3,60.0668164
block4.xlsx,58.6,7.5,4.4,6 x 3,18,7,6 x 3 = 18,small-sized_high-interference,small-sized,high-interference,8,CorrectRESP,a,0,3,3,3,0,4,4,4,,,,,,,,,,,,,,,1075.1080743759994,None,1075.6079054639995,None,1077.6085386289997,None,1078.358389582001,None,1078.607402294001,None,1078.607402294001,None,d,0,0.7776032719993964,1078.607402294001,None,1079.407994901001,None,1079.407994901001,None,d,0.14495173699833686,1079.407994901001,None,1079.5746546289993,None,,,,,sub-11,06/12/2002,2: Female,15/07/2023,001,1: right,2023_Jul_15_1333,[FINAL]_fmri_multiplication,2021.2.3,60.0668164
block4.xlsx,70.5,7.5,2.6,4 x 9,32,20,4 x 9 = 32,large-sized_high-interference,large-sized,high-interference,9,IncorrectRESP,d,0,3,3,3,0,5,5,5,,,,,,,,,,,,,,,1083.9754070830022,None,1084.4749592850021,None,1086.4753813790012,None,1087.2252426129999,None,1087.4750484040014,None,1087.4750484040014,None,a,0,1.0459889770027075,1087.4750484040014,None,1088.5412588050021,None,1088.5412588050021,None,d,0.3158672870013106,1088.5412588050021,None,1088.8747361919995,None,,,,,sub-11,06/12/2002,2: Female,15/07/2023,001,1: right,2023_Jul_15_1333,[FINAL]_fmri_multiplication,2021.2.3,60.0668164
block4.xlsx,80.6,7.5,9.4,3 x 4,15,9,3 x 4 = 15,small-sized_high-interference,small-sized,high-interference,10,IncorrectRESP,d,0,3,3,3,0,6,6,6,,,,,,,,,,,,,,,1091.475023687999,None,1091.9743300279988,None,1093.974981448002,None,1094.7250779829992,None,1094.9750947680004,None,1094.9750947680004,None,a,0,0.6661693620008009,1094.9750947680004,None,1095.6584655680017,None,1095.6584655680017,None,d,0.2864907820003282,1095.6584655680017,None,1095.9745805380007,None,,,,,sub-11,06/12/2002,2: Female,15/07/2023,001,1: right,2023_Jul_15_1333,[FINAL]_fmri_multiplication,2021.2.3,60.0668164
block4.xlsx,97.5,7.5,6,6 x 6,36,13,6 x 6 = 36,large-sized_low-interference,large-sized,low-interference,4,CorrectRESP,a,0,3,3,3,0,7,7,7,,,,,,,,,,,,,,,1105.374460373001,None,1105.8748655669988,None,1107.8744189569989,None,1108.6248045829998,None,1108.8753135570005,None,1108.8753135570005,None,d,0,0.3256483479999588,1108.8753135570005,None,1109.2244499789995,None,1109.2244499789995,None,d,0.16056033900167677,1109.2244499789995,None,1109.407716859001,None,,,,,sub-11,06/12/2002,2: Female,15/07/2023,001,1: right,2023_Jul_15_1333,[FINAL]_fmri_multiplication,2021.2.3,60.0668164
block4.xlsx,111,7.5,5.8,7 x 6,42,23,7 x 6 = 42,large-sized_high-interference,large-sized,high-interference,22,CorrectRESP,a,0,3,3,3,0,8,8,8,,,,,,,,,,,,,,,1115.4085226999996,None,1115.908360117999,None,1117.9086897260022,None,1118.6587249160002,None,1118.9087012259988,None,1118.9087012259988,None,d,0,0.5243554510016111,1118.9087012259988,None,1119.4567418660008,None,1119.4567418660008,None,d,0.3442046459967969,1119.4567418660008,None,1119.8249978019994,None,,,,,sub-11,06/12/2002,2: Female,15/07/2023,001,1: right,2023_Jul_15_1333,[FINAL]_fmri_multiplication,2021.2.3,60.0668164
block4.xlsx,124.3,7.5,3.6,6 x 4,28,10,6 x 4 = 28,small-sized_high-interference,small-sized,high-interference,12,IncorrectRESP,d,0,3,3,3,0,9,9,9,,,,,,,,,,,,,,,1125.6250418550007,None,1126.124699177999,None,1128.139858415001,None,1128.889794,None,1129.139778093002,None,1129.139778093002,None,a,0,0.5653240989995538,1129.139778093002,None,1129.7231560130022,None,1129.7231560130022,None,a,0.389930898,1129.7231560130022,None,1130.140732865002,None,,,,,sub-11,06/12/2002,2: Female,15/07/2023,001,1: right,2023_Jul_15_1333,[FINAL]_fmri_multiplication,2021.2.3,60.0668164
block4.xlsx,135.4,7.5,9.3,5 x 5,30,3,5 x 5 = 30,small-sized_low-interference,small-sized,low-interference,3,IncorrectRESP,d,0,3,3,3,0,10,10,10,,,,,,,,,,,,,,,1133.7415505310018,None,1134.2414321940014,None,1136.2417766940016,None,1136.9916663780023,None,1137.241720588001,None,1137.241720588001,None,a,0,0.9032364640006563,1137.241720588001,None,1138.1744792999998,None,1138.1744792999998,None,d,0.17048123299900908,1138.1744792999998,None,1138.3748742999996,None,,,,,sub-11,06/12/2002,2: Female,15/07/2023,001,1: right,2023_Jul_15_1333,[FINAL]_fmri_multiplication,2021.2.3,60.0668164
block4.xlsx,152.2,7.5,9.8,7 x 3,21,11,7 x 3 = 21,small-sized_high-interference,small-sized,high-interference,13,CorrectRESP,a,0,3,3,3,0,11,11,11,,,,,,,,,,,,,,,1147.6749250030007,None,1148.175311,None,1150.1751521350016,None,1150.9250251490012,None,1151.1748739530012,None,1151.1748739530012,None,d,0,0.43408610000187764,1151.1748739530012,None,1151.6319578930015,None,1151.6319578930015,None,d,0.18498609099697205,1151.6319578930015,None,1151.8381838070018,None,,,,,sub-11,06/12/2002,2: Female,15/07/2023,001,1: right,2023_Jul_15_1333,[FINAL]_fmri_multiplication,2021.2.3,60.0668164
block4.xlsx,169.5,7.5,12.8,9 x 9,72,16,9 x 9 = 72,large-sized_low-interference,large-sized,low-interference,6,IncorrectRESP,d,0,3,3,3,0,12,12,12,,,,,,,,,,,,,,,1161.642221809001,None,1162.1412710860022,None,1164.1416882049998,None,1164.8916485689988,None,1165.141571586999,None,1165.141571586999,None,a,0,1.1235447259969078,1165.141571586999,None,1166.2911736390015,None,1166.2911736390015,None,d,0.309801907,1166.2911736390015,None,1166.625201,None,,,,,sub-11,06/12/2002,2: Female,15/07/2023,001,1: right,2023_Jul_15_1333,[FINAL]_fmri_multiplication,2021.2.3,60.0668164
block4.xlsx,189.8,7.5,8.9,4 x 4,20,4,4 x 4 = 20,small-sized_low-interference,small-sized,low-interference,5,IncorrectRESP,d,0,3,3,3,0,13,13,13,,,,,,,,,,,,,,,1179.4243686340014,None,1179.9243775940013,None,1181.9245281799995,None,1182.6749659119996,None,1182.9258296900007,None,1182.9258296900007,None,a,0,0.6991289559991856,1182.9258296900007,None,1183.6418444640003,None,1183.6418444640003,None,d,0.15114156200070283,1183.6418444640003,None,1183.824889948999,None,,,,,sub-11,06/12/2002,2: Female,15/07/2023,001,1: right,2023_Jul_15_1333,[FINAL]_fmri_multiplication,2021.2.3,60.0668164
block4.xlsx,206.2,7.5,2.4,5 x 8,45,21,5 x 8 = 45,large-sized_high-interference,large-sized,high-interference,9,IncorrectRESP,d,0,3,3,3,0,14,14,14,,,,,,,,,,,,,,,1192.7253969910016,None,1193.2268878190007,None,1195.2419244209996,None,1195.9918782109999,None,1196.2400550250022,None,1196.2400550250022,None,a,0,0.6490984160009248,1196.2400550250022,None,1196.9077190909993,None,1196.9077190909993,None,d,0.14135834000262548,1196.9077190909993,None,1197.074268364002,None,,,,,sub-11,06/12/2002,2: Female,15/07/2023,001,1: right,2023_Jul_15_1333,[FINAL]_fmri_multiplication,2021.2.3,60.0668164
block4.xlsx,216.1,7.5,14,8 x 2,16,5,8 x 2 = 16,small-sized_low-interference,small-sized,low-interference,7,CorrectRESP,a,0,3,3,3,0,15,15,15,,,,,,,,,,,,,,,1199.4748210090002,None,1199.9747708550021,None,1201.9749893840017,None,1202.7248792499995,None,1202.9754124620013,None,1202.9754124620013,None,d,0,0.825557498,1202.9754124620013,None,1203.8244720719995,None,1203.8244720719995,None,d,0.19248488200173597,1203.8244720719995,None,1204.0417192679997,None,,,,,sub-11,06/12/2002,2: Female,15/07/2023,001,1: right,2023_Jul_15_1333,[FINAL]_fmri_multiplication,2021.2.3,60.0668164
block4.xlsx,237.6,7.5,5.2,7 x 5,35,17,7 x 5 = 35,large-sized_low-interference,large-sized,low-interference,7,CorrectRESP,a,0,3,3,3,0,16,16,16,,,,,,,,,,,,,,,1218.0416174290003,None,1218.5418771030018,None,1220.5418295359996,None,1221.2915639300008,None,1221.5419992630013,None,1221.5419992630013,None,d,0,0.6189789419986482,1221.5419992630013,None,1222.1921636309999,None,1222.1921636309999,None,d,0.18482348999896203,1222.1921636309999,None,1222.4086142529995,None,,,,,sub-11,06/12/2002,2: Female,15/07/2023,001,1: right,2023_Jul_15_1333,[FINAL]_fmri_multiplication,2021.2.3,60.0668164
block4.xlsx,250.3,7.5,9.6,8 x 7,63,22,8 x 7 = 63,large-sized_high-interference,large-sized,high-interference,9,IncorrectRESP,d,0,3,3,3,0,17,17,17,,,,,,,,,,,,,,,1227.608677029999,None,1228.1088195250013,None,1230.1086171770003,None,1230.8584209500004,None,1231.1088860599993,None,1231.1088860599993,None,a,0,0.9000715549991583,1231.1088860599993,None,1232.0416717150001,None,1232.0416717150001,None,d,0.2475262459993246,1232.0416717150001,None,1232.3078064910005,None,,,,,sub-11,06/12/2002,2: Female,15/07/2023,001,1: right,2023_Jul_15_1333,[FINAL]_fmri_multiplication,2021.2.3,60.0668164
block4.xlsx,267.4,7.5,2.6,2 x 9,16,2,2 x 9 = 16,small-sized_low-interference,small-sized,low-interference,7,IncorrectRESP,d,0,3,3,3,0,18,18,18,,,,,,,,,,,,,,,1241.9082809889987,None,1242.4083581990017,None,1244.4083849679992,None,1245.1582050739999,None,1245.4081337259995,None,1245.4081337259995,None,a,0,0.6088174940014142,1245.4081337259995,None,1246.041151,None,1246.041151,None,d,0.14380963999792584,1246.041151,None,1246.2082835760011,None,,,,,sub-11,06/12/2002,2: Female,15/07/2023,001,1: right,2023_Jul_15_1333,[FINAL]_fmri_multiplication,2021.2.3,60.0668164
block4.xlsx,277.5,7.5,2.3,9 x 3,27,19,9 x 3 = 27,large-sized_high-interference,large-sized,high-interference,9,CorrectRESP,a,0,3,3,3,0,19,19,19,,,,,,,,,,,,,,,1248.8077776659993,None,1249.3079824279994,None,1251.3082334950013,None,1252.058273900002,None,1252.3084431930001,None,1252.3084431930001,None,d,0,0.47655381000004127,1252.3084431930001,None,1252.8078087680005,None,1252.8078087680005,None,d,0.19315489500149852,1252.8078087680005,None,1253.0245909330006,None,,,,,sub-11,06/12/2002,2: Female,15/07/2023,001,1: right,2023_Jul_15_1333,[FINAL]_fmri_multiplication,2021.2.3,60.0668164
block4.xlsx,287.3,7.5,3.1,4 x 5,16,8,4 x 5 = 16,small-sized_high-interference,small-sized,high-interference,8,IncorrectRESP,d,0,3,3,3,0,20,20,20,,,,,,,,,,,,,,,1255.324985137002,None,1255.825609,None,1257.825434475002,None,1258.5754484690005,None,1258.8256610850003,None,1258.8256610850003,None,a,0,0.6233257530002447,1258.8256610850003,None,1259.474551,None,1259.474551,None,d,0.11041485199893941,1259.474551,None,1259.608363749001,None,,,,,sub-11,06/12/2002,2: Female,15/07/2023,001,1: right,2023_Jul_15_1333,[FINAL]_fmri_multiplication,2021.2.3,60.0668164
block4.xlsx,297.9,7.5,2.7,7 x 7,49,18,7 x 7 = 49,large-sized_low-interference,large-sized,low-interference,7,CorrectRESP,a,0,3,3,3,0,21,21,21,,,,,,,,,,,,,,,1262.7087718840012,None,1263.2084870990002,None,1265.208336,None,1265.958383901001,None,1266.208408808001,None,1266.208408808001,None,a,1,0.6406670949982072,1266.208408808001,None,1266.8744558360013,None,1266.8744558360013,None,d,0.1425043170020217,1266.8744558360013,None,1267.0412644300013,None,,,,,sub-11,06/12/2002,2: Female,15/07/2023,001,1: right,2023_Jul_15_1333,[FINAL]_fmri_multiplication,2021.2.3,60.0668164
block4.xlsx,308.1,7.5,4.8,7 x 2,14,1,7 x 2 = 14,small-sized_low-interference,small-sized,low-interference,4,CorrectRESP,a,0,3,3,3,0,22,22,22,,,,,,,,,,,,,,,1269.741545478999,None,1270.2413113210023,None,1272.2415976340017,None,1272.9915250779995,None,1273.2415996810014,None,1273.2415996810014,None,d,0,0.3593318729981547,1273.2415996810014,None,1273.6236598809992,None,1273.6236598809992,None,d,0.1853186709995498,1273.6236598809992,None,1273.841540698002,None,,,,,sub-11,06/12/2002,2: Female,15/07/2023,001,1: right,2023_Jul_15_1333,[FINAL]_fmri_multiplication,2021.2.3,60.0668164
block4.xlsx,320.4,7.5,7.1,3 x 8,24,12,3 x 8 = 24,small-sized_high-interference,small-sized,high-interference,13,CorrectRESP,a,0,3,3,3,0,23,23,23,,,,,,,,,,,,,,,1278.6418253750016,None,1279.1431731230005,None,1281.1577785000009,None,1281.9081948950006,None,1282.1589109029992,None,1282.1589109029992,None,d,0,0.4100888530010707,1282.1589109029992,None,1282.5909912800016,None,1282.5909912800016,None,d,0.1940213890011364,1282.5909912800016,None,1282.808164394999,None,,,,,sub-11,06/12/2002,2: Female,15/07/2023,001,1: right,2023_Jul_15_1333,[FINAL]_fmri_multiplication,2021.2.3,60.0668164
block4.xlsx,,,,,,,,,,,,,,0,3,3,3,,,,,0,0,0,0,,,,,,,,,,,,,,,,,,,,,,,,,,,,,,,,,,,,,,1289.9079974720007,None,1289.9079974720007,None,sub-11,06/12/2002,2: Female,15/07/2023,001,1: right,2023_Jul_15_1333,[FINAL]_fmri_multiplication,2021.2.3,60.0668164
block4.xlsx,,,,,,,,,,,,,,0,3,3,3,,,,,1,0,1,0,,,,,,,,,,,,,,,,,,,,,,,,,,,,,,,,,,,,,,1290.9082605920012,1290.9082605920012,1290.9082605920012,1290.9082605920012,sub-11,06/12/2002,2: Female,15/07/2023,001,1: right,2023_Jul_15_1333,[FINAL]_fmri_multiplication,2021.2.3,60.0668164
block4.xlsx,,,,,,,,,,,,,,0,3,3,3,,,,,2,0,2,0,,,,,,,,,,,,,,,,,,,,,,,,,,,,,,,,,,,,,,1291.922553553999,None,1291.922553553999,None,sub-11,06/12/2002,2: Female,15/07/2023,001,1: right,2023_Jul_15_1333,[FINAL]_fmri_multiplication,2021.2.3,60.0668164
block4.xlsx,,,,,,,,,,,,,,0,3,3,3,,,,,3,0,3,0,,,,,,,,,,,,,,,,,,,,,,,,,,,,,,,,,,,,,,1292.9258869440018,None,1292.9258869440018,None,sub-11,06/12/2002,2: Female,15/07/2023,001,1: right,2023_Jul_15_1333,[FINAL]_fmri_multiplication,2021.2.3,60.0668164
block4.xlsx,,,,,,,,,,,,,,0,3,3,3,,,,,4,0,4,0,,,,,,,,,,,,,,,,,,,,,,,,,,,,,,,,,,,,,,1293.9261910540008,None,1293.9261910540008,None,sub-11,06/12/2002,2: Female,15/07/2023,001,1: right,2023_Jul_15_1333,[FINAL]_fmri_multiplication,2021.2.3,60.0668164
block4.xlsx,,,,,,,,,,,,,,0,3,3,3,,,,,5,0,5,0,,,,,,,,,,,,,,,,,,,,,,,,,,,,,,,,,,,,,,1294.9251663489995,None,1294.9251663489995,None,sub-11,06/12/2002,2: Female,15/07/2023,001,1: right,2023_Jul_15_1333,[FINAL]_fmri_multiplication,2021.2.3,60.0668164
block4.xlsx,,,,,,,,,,,,,,0,3,3,3,,,,,6,0,6,0,,,,,,,,,,,,,,,,,,,,,,,,,,,,,,,,,,,,,,1295.9259392509994,None,1295.9259392509994,None,sub-11,06/12/2002,2: Female,15/07/2023,001,1: right,2023_Jul_15_1333,[FINAL]_fmri_multiplication,2021.2.3,60.0668164
block4.xlsx,,,,,,,,,,,,,,0,3,3,3,,,,,7,0,7,0,,,,,,,,,,,,,,,,,,,,,,,,,,,,,,,,,,,,,,1296.9264687530012,None,1296.9264687530012,None,sub-11,06/12/2002,2: Female,15/07/2023,001,1: right,2023_Jul_15_1333,[FINAL]_fmri_multiplication,2021.2.3,60.0668164
block4.xlsx,,,,,,,,,,,,,,0,3,3,3,,,,,8,0,8,0,,,,,,,,,,,,,,,,,,,,,,,,,,,,,,,,,,,,,,1297.9278962989993,None,1297.9278962989993,None,sub-11,06/12/2002,2: Female,15/07/2023,001,1: right,2023_Jul_15_1333,[FINAL]_fmri_multiplication,2021.2.3,60.0668164
block4.xlsx,,,,,,,,,,,,,,0,3,3,3,,,,,9,0,9,0,,,,,,,,,,,,,,,,,,,,,,,,,,,,,,,,,,,,,,1298.9256094390003,None,1298.9256094390003,None,sub-11,06/12/2002,2: Female,15/07/2023,001,1: right,2023_Jul_15_1333,[FINAL]_fmri_multiplication,2021.2.3,60.0668164
block4.xlsx,,,,,,,,,,,,,,0,3,3,3,,,,,10,0,10,0,,,,,,,,,,,,,,,,,,,,,,,,,,,,,,,,,,,,,,1299.9259256030018,None,1299.9259256030018,None,sub-11,06/12/2002,2: Female,15/07/2023,001,1: right,2023_Jul_15_1333,[FINAL]_fmri_multiplication,2021.2.3,60.0668164
block4.xlsx,,,,,,,,,,,,,,0,3,3,3,,,,,11,0,11,0,,,,,,,,,,,,,,,,,,,,,,,,,,,,,,,,,,,,,,1300.925449661001,None,1300.925449661001,None,sub-11,06/12/2002,2: Female,15/07/2023,001,1: right,2023_Jul_15_1333,[FINAL]_fmri_multiplication,2021.2.3,60.0668164
block4.xlsx,,,,,,,,,,,,,,0,3,3,3,,,,,12,0,12,0,,,,,,,,,,,,,,,,,,,,,,,,,,,,,,,,,,,,,,1301.924726256002,None,1301.924726256002,None,sub-11,06/12/2002,2: Female,15/07/2023,001,1: right,2023_Jul_15_1333,[FINAL]_fmri_multiplication,2021.2.3,60.0668164
block4.xlsx,,,,,,,,,,,,,,0,3,3,3,,,,,13,0,13,0,,,,,,,,,,,,,,,,,,,,,,,,,,,,,,,,,,,,,,1302.924934,None,1302.924934,None,sub-11,06/12/2002,2: Female,15/07/2023,001,1: right,2023_Jul_15_1333,[FINAL]_fmri_multiplication,2021.2.3,60.0668164
block4.xlsx,,,,,,,,,,,,,,0,3,3,3,,,,,14,0,14,0,,,,,,,,,,,,,,,,,,,,,,,,,,,,,,,,,,,,,,1303.9246270959993,None,1303.9246270959993,None,sub-11,06/12/2002,2: Female,15/07/2023,001,1: right,2023_Jul_15_1333,[FINAL]_fmri_multiplication,2021.2.3,60.0668164
block4.xlsx,,,,,,,,,,,,,,0,3,3,3,,,,,15,0,15,0,,,,,,,,,,,,,,,,,,,,,,,,,,,,,,,,,,,,,,1304.9255237430007,None,1304.9255237430007,None,sub-11,06/12/2002,2: Female,15/07/2023,001,1: right,2023_Jul_15_1333,[FINAL]_fmri_multiplication,2021.2.3,60.0668164
block4.xlsx,,,,,,,,,,,,,,0,3,3,3,,,,,16,0,16,0,,,,,,,,,,,,,,,,,,,,,,,,,,,,,,,,,,,,,,1305.9239094389995,None,1305.9239094389995,None,sub-11,06/12/2002,2: Female,15/07/2023,001,1: right,2023_Jul_15_1333,[FINAL]_fmri_multiplication,2021.2.3,60.0668164
block4.xlsx,,,,,,,,,,,,,,0,3,3,3,,,,,17,0,17,0,,,,,,,,,,,,,,,,,,,,,,,,,,,,,,,,,,,,,,1306.9254130279987,None,1306.9254130279987,None,sub-11,06/12/2002,2: Female,15/07/2023,001,1: right,2023_Jul_15_1333,[FINAL]_fmri_multiplication,2021.2.3,60.0668164
block4.xlsx,,,,,,,,,,,,,,0,3,3,3,,,,,18,0,18,0,,,,,,,,,,,,,,,,,,,,,,,,,,,,,,,,,,,,,,1307.925149,None,1307.925149,None,sub-11,06/12/2002,2: Female,15/07/2023,001,1: right,2023_Jul_15_1333,[FINAL]_fmri_multiplication,2021.2.3,60.0668164
block4.xlsx,,,,,,,,,,,,,,0,3,3,3,,,,,19,0,19,0,,,,,,,,,,,,,,,,,,,,,,,,,,,,,,,,,,,,,,1308.9249559320015,None,1308.9249559320015,None,sub-11,06/12/2002,2: Female,15/07/2023,001,1: right,2023_Jul_15_1333,[FINAL]_fmri_multiplication,2021.2.3,60.0668164
block4.xlsx,,,,,,,,,,,,,,0,3,3,3,,,,,20,0,20,0,,,,,,,,,,,,,,,,,,,,,,,,,,,,,,,,,,,,,,1309.924122,None,1309.924122,None,sub-11,06/12/2002,2: Female,15/07/2023,001,1: right,2023_Jul_15_1333,[FINAL]_fmri_multiplication,2021.2.3,60.0668164
block4.xlsx,,,,,,,,,,,,,,0,3,3,3,,,,,21,0,21,0,,,,,,,,,,,,,,,,,,,,,,,,,,,,,,,,,,,,,,1310.925199,None,1310.925199,None,sub-11,06/12/2002,2: Female,15/07/2023,001,1: right,2023_Jul_15_1333,[FINAL]_fmri_multiplication,2021.2.3,60.0668164
block4.xlsx,,,,,,,,,,,,,,0,3,3,3,,,,,22,0,22,0,,,,,,,,,,,,,,,,,,,,,,,,,,,,,,,,,,,,,,1311.9253202639993,None,1311.9253202639993,None,sub-11,06/12/2002,2: Female,15/07/2023,001,1: right,2023_Jul_15_1333,[FINAL]_fmri_multiplication,2021.2.3,60.0668164
block4.xlsx,,,,,,,,,,,,,,0,3,3,3,,,,,23,0,23,0,,,,,,,,,,,,,,,,,,,,,,,,,,,,,,,,,,,,,,1312.924621082002,None,1312.924621082002,None,sub-11,06/12/2002,2: Female,15/07/2023,001,1: right,2023_Jul_15_1333,[FINAL]_fmri_multiplication,2021.2.3,60.0668164
block4.xlsx,,,,,,,,,,,,,,0,3,3,3,,,,,24,0,24,0,,,,,,,,,,,,,,,,,,,,,,,,,,,,,,,,,,,,,,1313.9247737900005,None,1313.9247737900005,None,sub-11,06/12/2002,2: Female,15/07/2023,001,1: right,2023_Jul_15_1333,[FINAL]_fmri_multiplication,2021.2.3,60.0668164
block4.xlsx,,,,,,,,,,,,,,0,3,3,3,,,,,25,0,25,0,,,,,,,,,,,,,,,,,,,,,,,,,,,,,,,,,,,,,,1314.925248464002,None,1314.925248464002,None,sub-11,06/12/2002,2: Female,15/07/2023,001,1: right,2023_Jul_15_1333,[FINAL]_fmri_multiplication,2021.2.3,60.0668164
block4.xlsx,,,,,,,,,,,,,,0,3,3,3,,,,,26,0,26,0,,,,,,,,,,,,,,,,,,,,,,,,,,,,,,,,,,,,,,1315.924735992001,None,1315.924735992001,None,sub-11,06/12/2002,2: Female,15/07/2023,001,1: right,2023_Jul_15_1333,[FINAL]_fmri_multiplication,2021.2.3,60.0668164
block4.xlsx,,,,,,,,,,,,,,0,3,3,3,,,,,27,0,27,0,,,,,,,,,,,,,,,,,,,,,,,,,,,,,,,,,,,,,,1316.9250116340008,None,1316.9250116340008,None,sub-11,06/12/2002,2: Female,15/07/2023,001,1: right,2023_Jul_15_1333,[FINAL]_fmri_multiplication,2021.2.3,60.0668164
block4.xlsx,,,,,,,,,,,,,,0,3,3,3,,,,,28,0,28,0,,,,,,,,,,,,,,,,,,,,,,,,,,,,,,,,,,,,,,1317.924869057002,None,1317.924869057002,None,sub-11,06/12/2002,2: Female,15/07/2023,001,1: right,2023_Jul_15_1333,[FINAL]_fmri_multiplication,2021.2.3,60.0668164
block4.xlsx,,,,,,,,,,,,,,0,3,3,3,,,,,29,0,29,0,,,,,,,,,,,,,,,,,,,,,,,,,,,,,,,,,,,,,,1318.9248156969988,None,1318.9248156969988,None,sub-11,06/12/2002,2: Female,15/07/2023,001,1: right,2023_Jul_15_1333,[FINAL]_fmri_multiplication,2021.2.3,60.0668164
block4.xlsx,,,,,,,,,,,,,,0,3,3,3,,,,,,,,,,,,,,,,,,,,,,,,,,,,,,,,,,,,,,,,,,,,,,,,,,sub-11,06/12/2002,2: Female,15/07/2023,001,1: right,2023_Jul_15_1333,[FINAL]_fmri_multiplication,2021.2.3,60.0668164