blocks_file,start,dur,rest,mult_problemB,mult_options,stim_trial,mult_stim,type,ProblemSize,InterferenceLH,InterferenceLevel,mult_type,corrRESP,blocks_set.thisRepN,blocks_set.thisTrialN,blocks_set.thisN,blocks_set.thisIndex,TRIALS.thisRepN,TRIALS.thisTrialN,TRIALS.thisN,TRIALS.thisIndex,timer_loop.thisRepN,timer_loop.thisTrialN,timer_loop.thisN,timer_loop.thisIndex,WAIT_TEXT.started,WAIT_TEXT.stopped,scan_start_trigger.keys,scan_start_trigger.rt,scan_start_trigger.started,scan_start_trigger.stopped,MAIN_SCREEN.started,MAIN_SCREEN.stopped,Block_Text.started,Block_Text.stopped,asterisk500ms.started,asterisk500ms.stopped,mult_question_text.started,mult_question_text.stopped,equal_text.started,equal_text.stopped,blank250_text.started,blank250_text.stopped,Mult_OPTION.started,Mult_OPTION.stopped,Mult_YN.started,Mult_YN.stopped,Mult_Resp.keys,Mult_Resp.corr,Mult_Resp.rt,Mult_Resp.started,Mult_Resp.stopped,Strategy_Q.started,Strategy_Q.stopped,Strategy_Option.started,Strategy_Option.stopped,Strategy_RESP.keys,Strategy_RESP.rt,Strategy_RESP.started,Strategy_RESP.stopped,jitters.started,jitters.stopped,resting_text.started,resting_text.stopped,countdown_timer.started,countdown_timer.stopped,End_Text.started,End_Text.stopped,fixation.started,fixation.stopped,fixation_end.keys,fixation_end.rt,fixation_end.started,fixation_end.stopped,participant,Date of birth (DD/MM/YEAR),gender,Testing Date (DD/MM/YEAR),session,handedness,date,expName,psychopyVersion,frameRate
,,,,,,,,,,,,,,,,,,,,,,,,,,31.833981032999873,None,s,19.361210973999732,31.833981032999873,None,,,,,,,,,,,,,,,,,,,,,,,,,,,,,,,,,,,,,,,,,,,,sub-26,09/01/2003,2: Female,16/10/2023,002,1: right,2023_Oct_16_1751,[FINAL]_fmri_multiplication,2021.2.3,59.92935000852774
block5.xlsx,10,7.5,4.6,3 x 6,18,7,6 x 3 = 18,small-sized_high-interference,small-sized,high-interference,8,CorrectRESP,a,0,0,0,0,0,0,0,0,,,,,,,,,,,51.21687688,None,56.23612872800004,None,66.25451803499982,None,66.73620432200005,None,68.73315440900024,None,69.48313774899998,None,69.73441905399977,None,69.73441905399977,None,d,0,0.5695983820005495,69.73441905399977,None,70.33269713,None,70.33269713,None,d,0.6512672729995757,70.33269713,None,71.01640157600013,None,,,,,,,,,,,,,sub-26,09/01/2003,2: Female,16/10/2023,002,1: right,2023_Oct_16_1751,[FINAL]_fmri_multiplication,2021.2.3,59.92935000852774
block5.xlsx,22.1,7.5,7,9 x 9,72,16,9 x 9 = 72,large-sized_low-interference,large-sized,low-interference,6,IncorrectRESP,d,0,0,0,0,0,1,1,1,,,,,,,,,,,,,,,75.61635656399994,None,76.11715865599945,None,78.11607237399949,None,78.86630396700002,None,79.11794794599973,None,79.11794794599973,None,a,0,0.8179530730003535,79.11794794599973,None,79.96620813699974,None,79.96620813699974,None,d,0.46583398100028717,79.96620813699974,None,80.44920883,None,,,,,,,,,,,,,sub-26,09/01/2003,2: Female,16/10/2023,002,1: right,2023_Oct_16_1751,[FINAL]_fmri_multiplication,2021.2.3,59.92935000852774
block5.xlsx,36.6,7.5,4.4,2 x 6,12,6,6 x 2 = 12,small-sized_low-interference,small-sized,low-interference,3,CorrectRESP,a,0,0,0,0,0,2,2,2,,,,,,,,,,,,,,,87.44977933500013,None,87.95019481199961,None,89.95028489699962,None,90.69976200600013,None,90.94962590700015,None,90.94962590700015,None,d,0,0.48244455699932587,90.94962590700015,None,91.44916565199946,None,91.44916565199946,None,d,0.4708271479994437,91.44916565199946,None,91.94977449,None,,,,,,,,,,,,,sub-26,09/01/2003,2: Female,16/10/2023,002,1: right,2023_Oct_16_1751,[FINAL]_fmri_multiplication,2021.2.3,59.92935000852774
block5.xlsx,48.5,7.5,9.6,8 x 3,24,12,3 x 8 = 24,small-sized_high-interference,small-sized,high-interference,13,CorrectRESP,a,0,0,0,0,0,3,3,3,,,,,,,,,,,,,,,96.34926004199951,None,96.84923185600019,None,98.84954072799974,None,99.59974023299947,None,99.85030277999977,None,99.85030277999977,None,d,0,0.509725204,99.85030277999977,None,100.38263182599985,None,100.38263182599985,None,d,0.4334987900001579,100.38263182599985,None,100.83311085399964,None,,,,,,,,,,,,,sub-26,09/01/2003,2: Female,16/10/2023,002,1: right,2023_Oct_16_1751,[FINAL]_fmri_multiplication,2021.2.3,59.92935000852774
block5.xlsx,65.6,7.5,5.4,5 x 5,30,3,5 x 5 = 30,small-sized_low-interference,small-sized,low-interference,3,IncorrectRESP,d,0,0,0,0,0,4,4,4,,,,,,,,,,,,,,,110.43313289300022,None,110.93374842799949,None,112.9332201999996,None,113.68273803899956,None,113.93421223899986,None,113.93421223899986,None,a,0,0.609856317,113.93421223899986,None,114.56616459599991,None,114.56616459599991,None,d,0.3537808920000316,114.56616459599991,None,114.94992728800025,None,,,,,,,,,,,,,sub-26,09/01/2003,2: Female,16/10/2023,002,1: right,2023_Oct_16_1751,[FINAL]_fmri_multiplication,2021.2.3,59.92935000852774
block5.xlsx,78.5,7.5,7.7,3 x 9,27,19,9 x 3 = 27,large-sized_high-interference,large-sized,high-interference,9,CorrectRESP,a,0,0,0,0,0,5,5,5,,,,,,,,,,,,,,,120.35033345699958,None,120.85006365200024,None,122.85026760399978,None,123.6001161969998,None,123.84977348499979,None,123.84977348499979,None,d,0,0.5741572139995696,123.84977348499979,None,124.44960406100017,None,124.44960406100017,None,d,0.3824175110003125,124.44960406100017,None,124.84902788399995,None,,,,,,,,,,,,,sub-26,09/01/2003,2: Female,16/10/2023,002,1: right,2023_Oct_16_1751,[FINAL]_fmri_multiplication,2021.2.3,59.92935000852774
block5.xlsx,93.7,7.5,3.5,2 x 8,18,5,8 x 2 = 18,small-sized_low-interference,small-sized,low-interference,7,IncorrectRESP,d,0,0,0,0,0,6,6,6,,,,,,,,,,,,,,,132.54996565799956,None,133.04938740099988,None,135.04888834299982,None,135.81516112899953,None,136.0651261209996,None,136.0651261209996,None,a,0,0.6468365509999785,136.0651261209996,None,136.74625596299938,None,136.74625596299938,None,d,0.41370788000040193,136.74625596299938,None,137.18168071799937,None,,,,,,,,,,,,,sub-26,09/01/2003,2: Female,16/10/2023,002,1: right,2023_Oct_16_1751,[FINAL]_fmri_multiplication,2021.2.3,59.92935000852774
block5.xlsx,104.7,7.5,6.4,7 x 7,49,18,7 x 7 = 49,large-sized_low-interference,large-sized,low-interference,7,CorrectRESP,a,0,0,0,0,0,7,7,7,,,,,,,,,,,,,,,140.6826926650001,None,141.18268789000012,None,143.18271550200006,None,143.9329989,None,144.18393734500023,None,144.18393734500023,None,d,0,0.7600333939999473,144.18393734500023,None,144.96593762199973,None,144.96593762199973,None,d,0.41802967300009186,144.96593762199973,None,145.4159452,None,,,,,,,,,,,,,sub-26,09/01/2003,2: Female,16/10/2023,002,1: right,2023_Oct_16_1751,[FINAL]_fmri_multiplication,2021.2.3,59.92935000852774
block5.xlsx,118.6,7.5,3.2,8 x 5,45,21,5 x 8 = 45,large-sized_high-interference,large-sized,high-interference,9,IncorrectRESP,d,0,0,0,0,0,8,8,8,,,,,,,,,,,,,,,151.8166884709999,None,152.3166388769996,None,154.31684382099957,None,155.06687758599946,None,155.31674462799947,None,155.31674462799947,None,a,0,0.955300601,155.31674462799947,None,156.29921847599962,None,156.29921847599962,None,d,0.45272991100046056,156.29921847599962,None,156.78370213800008,None,,,,,,,,,,,,,sub-26,09/01/2003,2: Female,16/10/2023,002,1: right,2023_Oct_16_1751,[FINAL]_fmri_multiplication,2021.2.3,59.92935000852774
block5.xlsx,129.3,7.5,6.8,5 x 4,20,8,4 x 5 = 20,small-sized_high-interference,small-sized,high-interference,8,CorrectRESP,a,0,0,0,0,0,9,9,9,,,,,,,,,,,,,,,159.9836441440002,None,160.48318824799935,None,162.48322737599938,None,163.2331480160001,None,163.48432768299972,None,163.48432768299972,None,d,0,0.587797568,163.48432768299972,None,164.0999175930001,None,164.0999175930001,None,d,0.40409409499989124,164.0999175930001,None,164.53326857799948,None,,,,,,,,,,,,,sub-26,09/01/2003,2: Female,16/10/2023,002,1: right,2023_Oct_16_1751,[FINAL]_fmri_multiplication,2021.2.3,59.92935000852774
block5.xlsx,143.6,7.5,5.5,6 x 5,30,14,5 x 6 = 30,large-sized_low-interference,large-sized,low-interference,6,CorrectRESP,a,0,0,0,0,0,10,10,10,,,,,,,,,,,,,,,171.33311944399975,None,171.83152240300024,None,173.8331559,None,174.58315425199999,None,174.8316705520001,None,174.8316705520001,None,d,0,0.5442583000003651,174.8316705520001,None,175.3993575,None,175.3993575,None,d,0.3766040199998315,175.3993575,None,175.79984911700012,None,,,,,,,,,,,,,sub-26,09/01/2003,2: Female,16/10/2023,002,1: right,2023_Oct_16_1751,[FINAL]_fmri_multiplication,2021.2.3,59.92935000852774
block5.xlsx,156.6,7.5,6,3 x 7,24,11,7 x 3 = 24,small-sized_high-interference,small-sized,high-interference,13,IncorrectRESP,d,0,0,0,0,0,11,11,11,,,,,,,,,,,,,,,181.29968686899974,None,181.79812178599968,None,183.79989256099998,None,184.5499112560001,None,184.7996064580002,None,184.7996064580002,None,a,0,0.712344133,184.7996064580002,None,185.53295642099965,None,185.53295642099965,None,d,0.35504689999925176,185.53295642099965,None,185.91622326299967,None,,,,,,,,,,,,,sub-26,09/01/2003,2: Female,16/10/2023,002,1: right,2023_Oct_16_1751,[FINAL]_fmri_multiplication,2021.2.3,59.92935000852774
block5.xlsx,170.1,7.5,7.1,5 x 7,40,17,7 x 5 = 40,large-sized_low-interference,large-sized,low-interference,7,IncorrectRESP,d,0,0,0,0,0,12,12,12,,,,,,,,,,,,,,,191.9168694909995,None,192.41552243099977,None,194.41673586700017,None,195.1669706550001,None,195.4167829600001,None,195.4167829600001,None,a,0,1.047368641000503,195.4167829600001,None,196.4824152,None,196.4824152,None,d,0.32563790700078243,196.4824152,None,196.83277325699964,None,,,,,,,,,,,,,sub-26,09/01/2003,2: Female,16/10/2023,002,1: right,2023_Oct_16_1751,[FINAL]_fmri_multiplication,2021.2.3,59.92935000852774
block5.xlsx,184.7,7.5,5.3,4 x 6,28,10,6 x 4 = 28,small-sized_high-interference,small-sized,high-interference,12,IncorrectRESP,d,0,0,0,0,0,13,13,13,,,,,,,,,,,,,,,203.93312291199982,None,204.43271080399973,None,206.4331971239999,None,207.18311630599965,None,207.43306886400023,None,207.43306886400023,None,a,0,0.7189031930001875,207.43306886400023,None,208.18277973600016,None,208.18277973600016,None,d,0.48127015299996856,208.18277973600016,None,208.68262773599963,None,,,,,,,,,,,,,sub-26,09/01/2003,2: Female,16/10/2023,002,1: right,2023_Oct_16_1751,[FINAL]_fmri_multiplication,2021.2.3,59.92935000852774
block5.xlsx,197.5,7.5,4.2,2 x 7,14,1,7 x 2 = 14,small-sized_low-interference,small-sized,low-interference,4,CorrectRESP,a,0,0,0,0,0,14,14,14,,,,,,,,,,,,,,,213.98260828299954,None,214.48171967899998,None,216.4831400309995,None,217.23284870299995,None,217.48451850499987,None,217.48451850499987,None,d,0,0.7074407569998584,217.48451850499987,None,218.2160623230002,None,218.2160623230002,None,d,0.37588312499974563,218.2160623230002,None,218.61602986300022,None,,,,,,,,,,,,,sub-26,09/01/2003,2: Female,16/10/2023,002,1: right,2023_Oct_16_1751,[FINAL]_fmri_multiplication,2021.2.3,59.92935000852774
block5.xlsx,209.2,7.5,7.2,9 x 4,36,20,4 x 9 = 36,large-sized_high-interference,large-sized,high-interference,9,CorrectRESP,a,0,0,0,0,0,15,15,15,,,,,,,,,,,,,,,222.81391544300004,None,223.31779284200002,None,225.31681035200018,None,226.06673186499938,None,226.31677997399947,None,226.31677997399947,None,d,0,0.6671539520002625,226.31677997399947,None,227.0168783099998,None,227.0168783099998,None,d,0.39915898900017055,227.0168783099998,None,227.4334355840001,None,,,,,,,,,,,,,sub-26,09/01/2003,2: Female,16/10/2023,002,1: right,2023_Oct_16_1751,[FINAL]_fmri_multiplication,2021.2.3,59.92935000852774
block5.xlsx,223.9,7.5,4.3,4 x 4,20,4,4 x 4 = 20,small-sized_low-interference,small-sized,low-interference,5,IncorrectRESP,d,0,0,0,0,0,16,16,16,,,,,,,,,,,,,,,234.6334815629998,None,235.13313315100004,None,237.13335011900017,None,237.8830113260001,None,238.13305953599956,None,238.13305953599956,None,a,0,1.2109429080001064,238.13305953599956,None,239.3656116459997,None,239.3656116459997,None,d,0.2744179779992919,239.3656116459997,None,239.66624737599977,None,,,,,,,,,,,,,sub-26,09/01/2003,2: Female,16/10/2023,002,1: right,2023_Oct_16_1751,[FINAL]_fmri_multiplication,2021.2.3,59.92935000852774
block5.xlsx,235.7,7.5,9.9,6 x 7,48,23,7 x 6 = 48,large-sized_high-interference,large-sized,high-interference,22,IncorrectRESP,d,0,0,0,0,0,17,17,17,,,,,,,,,,,,,,,243.9664444099999,None,244.4660927949999,None,246.4664353319995,None,247.21601266800008,None,247.46611633700013,None,247.46611633700013,None,a,0,0.8939024420005808,247.46611633700013,None,248.3826967699997,None,248.3826967699997,None,d,0.3932374449996132,248.3826967699997,None,248.79953590199966,None,,,,,,,,,,,,,sub-26,09/01/2003,2: Female,16/10/2023,002,1: right,2023_Oct_16_1751,[FINAL]_fmri_multiplication,2021.2.3,59.92935000852774
block5.xlsx,253.1,7.5,3.1,9 x 2,18,2,2 x 9 = 18,small-sized_low-interference,small-sized,low-interference,7,CorrectRESP,a,0,0,0,0,0,18,18,18,,,,,,,,,,,,,,,258.7002257140002,None,259.2004526139999,None,261.2002880809996,None,261.95018579599946,None,262.1999636390001,None,262.1999636390001,None,d,0,1.000122989999909,262.1999636390001,None,263.21546780799963,None,263.21546780799963,None,d,0.3445317949999662,263.21546780799963,None,263.58305592800025,None,,,,,,,,,,,,,sub-26,09/01/2003,2: Female,16/10/2023,002,1: right,2023_Oct_16_1751,[FINAL]_fmri_multiplication,2021.2.3,59.92935000852774
block5.xlsx,263.7,7.5,4.6,5 x 9,40,15,9 x 5 = 40,large-sized_low-interference,large-sized,low-interference,6,IncorrectRESP,d,0,0,0,0,0,19,19,19,,,,,,,,,,,,,,,266.6833105979995,None,267.18453051399956,None,269.19987313799993,None,269.9498990869997,None,270.2007027059999,None,270.2007027059999,None,d,1,0.7592819239998789,270.2007027059999,None,270.98265246199935,None,270.98265246199935,None,d,1.2093035440002495,270.98265246199935,None,272.2159825279996,None,,,,,,,,,,,,,sub-26,09/01/2003,2: Female,16/10/2023,002,1: right,2023_Oct_16_1751,[FINAL]_fmri_multiplication,2021.2.3,59.92935000852774
block5.xlsx,275.8,7.5,3.9,7 x 8,63,22,8 x 7 = 63,large-sized_high-interference,large-sized,high-interference,9,IncorrectRESP,d,0,0,0,0,0,20,20,20,,,,,,,,,,,,,,,276.8165150349996,None,277.3164259969999,None,279.31654314299976,None,280.06604370700006,None,280.3160889089995,None,280.3160889089995,None,a,0,0.6358512320002774,280.3160889089995,None,280.9828562590001,None,280.9828562590001,None,d,0.5690835030000017,280.9828562590001,None,281.5831408989998,None,,,,,,,,,,,,,sub-26,09/01/2003,2: Female,16/10/2023,002,1: right,2023_Oct_16_1751,[FINAL]_fmri_multiplication,2021.2.3,59.92935000852774
block5.xlsx,287.2,7.5,7.4,4 x 3,15,9,3 x 4 = 15,small-sized_high-interference,small-sized,high-interference,10,IncorrectRESP,d,0,0,0,0,0,21,21,21,,,,,,,,,,,,,,,285.4830960119998,None,285.98171046399966,None,287.9831374819996,None,288.73276937799983,None,288.98301224399984,None,288.98301224399984,None,a,0,0.7769353300000148,288.98301224399984,None,289.78280133799944,None,289.78280133799944,None,d,0.28924287800055026,289.78280133799944,None,290.0999309580002,None,,,,,,,,,,,,,sub-26,09/01/2003,2: Female,16/10/2023,002,1: right,2023_Oct_16_1751,[FINAL]_fmri_multiplication,2021.2.3,59.92935000852774
block5.xlsx,302.1,7.5,7.1,4 x 8,32,24,8 x 4 = 32,large-sized_high-interference,large-sized,high-interference,25,CorrectRESP,a,0,0,0,0,0,22,22,22,,,,,,,,,,,,,,,297.50022253099996,None,297.9986980349995,None,300.0001861,None,300.75019996299943,None,300.99973680699986,None,300.99973680699986,None,d,0,1.0483174820001295,300.99973680699986,None,302.0645790950002,None,302.0645790950002,None,d,0.5674419560000388,302.0645790950002,None,302.64937592299975,None,,,,,,,,,,,,,sub-26,09/01/2003,2: Female,16/10/2023,002,1: right,2023_Oct_16_1751,[FINAL]_fmri_multiplication,2021.2.3,59.92935000852774
block5.xlsx,316.7,7.5,10.8,6 x 6,36,13,6 x 6 = 36,large-sized_low-interference,large-sized,low-interference,4,CorrectRESP,a,0,0,0,0,0,23,23,23,,,,,,,,,,,,,,,309.7498231899999,None,310.2492286,None,312.24982775900025,None,312.9996831939998,None,313.24982023400025,None,313.24982023400025,None,d,0,0.5822420950007654,313.24982023400025,None,313.8482279640002,None,313.8482279640002,None,d,0.4558090170003197,313.8482279640002,None,314.3331038309998,None,,,,,,,,,,,,,sub-26,09/01/2003,2: Female,16/10/2023,002,1: right,2023_Oct_16_1751,[FINAL]_fmri_multiplication,2021.2.3,59.92935000852774
block5.xlsx,,,,,,,,,,,,,,0,0,0,0,,,,,0,0,0,0,,,,,,,,,,,,,,,,,,,,,,,,,,,,,,,,,,,,,,325.13461867499973,None,325.13461867499973,None,,,,,,,,,sub-26,09/01/2003,2: Female,16/10/2023,002,1: right,2023_Oct_16_1751,[FINAL]_fmri_multiplication,2021.2.3,59.92935000852774
block5.xlsx,,,,,,,,,,,,,,0,0,0,0,,,,,1,0,1,0,,,,,,,,,,,,,,,,,,,,,,,,,,,,,,,,,,,,,,326.15222581499984,None,326.15222581499984,None,,,,,,,,,sub-26,09/01/2003,2: Female,16/10/2023,002,1: right,2023_Oct_16_1751,[FINAL]_fmri_multiplication,2021.2.3,59.92935000852774
block5.xlsx,,,,,,,,,,,,,,0,0,0,0,,,,,2,0,2,0,,,,,,,,,,,,,,,,,,,,,,,,,,,,,,,,,,,,,,327.1514082829999,None,327.1514082829999,None,,,,,,,,,sub-26,09/01/2003,2: Female,16/10/2023,002,1: right,2023_Oct_16_1751,[FINAL]_fmri_multiplication,2021.2.3,59.92935000852774
block5.xlsx,,,,,,,,,,,,,,0,0,0,0,,,,,3,0,3,0,,,,,,,,,,,,,,,,,,,,,,,,,,,,,,,,,,,,,,328.1508980849994,None,328.1508980849994,None,,,,,,,,,sub-26,09/01/2003,2: Female,16/10/2023,002,1: right,2023_Oct_16_1751,[FINAL]_fmri_multiplication,2021.2.3,59.92935000852774
block5.xlsx,,,,,,,,,,,,,,0,0,0,0,,,,,4,0,4,0,,,,,,,,,,,,,,,,,,,,,,,,,,,,,,,,,,,,,,329.1361273299999,None,329.1361273299999,None,,,,,,,,,sub-26,09/01/2003,2: Female,16/10/2023,002,1: right,2023_Oct_16_1751,[FINAL]_fmri_multiplication,2021.2.3,59.92935000852774
block5.xlsx,,,,,,,,,,,,,,0,0,0,0,,,,,5,0,5,0,,,,,,,,,,,,,,,,,,,,,,,,,,,,,,,,,,,,,,330.1512933,None,330.1512933,None,,,,,,,,,sub-26,09/01/2003,2: Female,16/10/2023,002,1: right,2023_Oct_16_1751,[FINAL]_fmri_multiplication,2021.2.3,59.92935000852774
block5.xlsx,,,,,,,,,,,,,,0,0,0,0,,,,,6,0,6,0,,,,,,,,,,,,,,,,,,,,,,,,,,,,,,,,,,,,,,331.15186803399956,None,331.15186803399956,None,,,,,,,,,sub-26,09/01/2003,2: Female,16/10/2023,002,1: right,2023_Oct_16_1751,[FINAL]_fmri_multiplication,2021.2.3,59.92935000852774
block5.xlsx,,,,,,,,,,,,,,0,0,0,0,,,,,7,0,7,0,,,,,,,,,,,,,,,,,,,,,,,,,,,,,,,,,,,,,,332.1502282,None,332.1502282,None,,,,,,,,,sub-26,09/01/2003,2: Female,16/10/2023,002,1: right,2023_Oct_16_1751,[FINAL]_fmri_multiplication,2021.2.3,59.92935000852774
block5.xlsx,,,,,,,,,,,,,,0,0,0,0,,,,,8,0,8,0,,,,,,,,,,,,,,,,,,,,,,,,,,,,,,,,,,,,,,333.1514092839998,None,333.1514092839998,None,,,,,,,,,sub-26,09/01/2003,2: Female,16/10/2023,002,1: right,2023_Oct_16_1751,[FINAL]_fmri_multiplication,2021.2.3,59.92935000852774
block5.xlsx,,,,,,,,,,,,,,0,0,0,0,,,,,9,0,9,0,,,,,,,,,,,,,,,,,,,,,,,,,,,,,,,,,,,,,,334.15161627699945,None,334.15161627699945,None,,,,,,,,,sub-26,09/01/2003,2: Female,16/10/2023,002,1: right,2023_Oct_16_1751,[FINAL]_fmri_multiplication,2021.2.3,59.92935000852774
block5.xlsx,,,,,,,,,,,,,,0,0,0,0,,,,,10,0,10,0,,,,,,,,,,,,,,,,,,,,,,,,,,,,,,,,,,,,,,335.1500970099996,None,335.1500970099996,None,,,,,,,,,sub-26,09/01/2003,2: Female,16/10/2023,002,1: right,2023_Oct_16_1751,[FINAL]_fmri_multiplication,2021.2.3,59.92935000852774
block5.xlsx,,,,,,,,,,,,,,0,0,0,0,,,,,11,0,11,0,,,,,,,,,,,,,,,,,,,,,,,,,,,,,,,,,,,,,,336.15063623399965,None,336.15063623399965,None,,,,,,,,,sub-26,09/01/2003,2: Female,16/10/2023,002,1: right,2023_Oct_16_1751,[FINAL]_fmri_multiplication,2021.2.3,59.92935000852774
block5.xlsx,,,,,,,,,,,,,,0,0,0,0,,,,,12,0,12,0,,,,,,,,,,,,,,,,,,,,,,,,,,,,,,,,,,,,,,337.14989539699945,None,337.14989539699945,None,,,,,,,,,sub-26,09/01/2003,2: Female,16/10/2023,002,1: right,2023_Oct_16_1751,[FINAL]_fmri_multiplication,2021.2.3,59.92935000852774
block5.xlsx,,,,,,,,,,,,,,0,0,0,0,,,,,13,0,13,0,,,,,,,,,,,,,,,,,,,,,,,,,,,,,,,,,,,,,,338.14858049399936,None,338.14858049399936,None,,,,,,,,,sub-26,09/01/2003,2: Female,16/10/2023,002,1: right,2023_Oct_16_1751,[FINAL]_fmri_multiplication,2021.2.3,59.92935000852774
block5.xlsx,,,,,,,,,,,,,,0,0,0,0,,,,,14,0,14,0,,,,,,,,,,,,,,,,,,,,,,,,,,,,,,,,,,,,,,339.15001510899947,None,339.15001510899947,None,,,,,,,,,sub-26,09/01/2003,2: Female,16/10/2023,002,1: right,2023_Oct_16_1751,[FINAL]_fmri_multiplication,2021.2.3,59.92935000852774
block5.xlsx,,,,,,,,,,,,,,0,0,0,0,,,,,15,0,15,0,,,,,,,,,,,,,,,,,,,,,,,,,,,,,,,,,,,,,,340.14931382299983,None,340.14931382299983,None,,,,,,,,,sub-26,09/01/2003,2: Female,16/10/2023,002,1: right,2023_Oct_16_1751,[FINAL]_fmri_multiplication,2021.2.3,59.92935000852774
block5.xlsx,,,,,,,,,,,,,,0,0,0,0,,,,,16,0,16,0,,,,,,,,,,,,,,,,,,,,,,,,,,,,,,,,,,,,,,341.15008379199935,None,341.15008379199935,None,,,,,,,,,sub-26,09/01/2003,2: Female,16/10/2023,002,1: right,2023_Oct_16_1751,[FINAL]_fmri_multiplication,2021.2.3,59.92935000852774
block5.xlsx,,,,,,,,,,,,,,0,0,0,0,,,,,17,0,17,0,,,,,,,,,,,,,,,,,,,,,,,,,,,,,,,,,,,,,,342.1496257529998,None,342.1496257529998,None,,,,,,,,,sub-26,09/01/2003,2: Female,16/10/2023,002,1: right,2023_Oct_16_1751,[FINAL]_fmri_multiplication,2021.2.3,59.92935000852774
block5.xlsx,,,,,,,,,,,,,,0,0,0,0,,,,,18,0,18,0,,,,,,,,,,,,,,,,,,,,,,,,,,,,,,,,,,,,,,343.1494765589996,None,343.1494765589996,None,,,,,,,,,sub-26,09/01/2003,2: Female,16/10/2023,002,1: right,2023_Oct_16_1751,[FINAL]_fmri_multiplication,2021.2.3,59.92935000852774
block5.xlsx,,,,,,,,,,,,,,0,0,0,0,,,,,19,0,19,0,,,,,,,,,,,,,,,,,,,,,,,,,,,,,,,,,,,,,,344.15044639699954,None,344.15044639699954,None,,,,,,,,,sub-26,09/01/2003,2: Female,16/10/2023,002,1: right,2023_Oct_16_1751,[FINAL]_fmri_multiplication,2021.2.3,59.92935000852774
block5.xlsx,,,,,,,,,,,,,,0,0,0,0,,,,,20,0,20,0,,,,,,,,,,,,,,,,,,,,,,,,,,,,,,,,,,,,,,345.1501424709995,None,345.1501424709995,None,,,,,,,,,sub-26,09/01/2003,2: Female,16/10/2023,002,1: right,2023_Oct_16_1751,[FINAL]_fmri_multiplication,2021.2.3,59.92935000852774
block5.xlsx,,,,,,,,,,,,,,0,0,0,0,,,,,21,0,21,0,,,,,,,,,,,,,,,,,,,,,,,,,,,,,,,,,,,,,,346.1497465430002,None,346.1497465430002,None,,,,,,,,,sub-26,09/01/2003,2: Female,16/10/2023,002,1: right,2023_Oct_16_1751,[FINAL]_fmri_multiplication,2021.2.3,59.92935000852774
block5.xlsx,,,,,,,,,,,,,,0,0,0,0,,,,,22,0,22,0,,,,,,,,,,,,,,,,,,,,,,,,,,,,,,,,,,,,,,347.14956548600003,None,347.14956548600003,None,,,,,,,,,sub-26,09/01/2003,2: Female,16/10/2023,002,1: right,2023_Oct_16_1751,[FINAL]_fmri_multiplication,2021.2.3,59.92935000852774
block5.xlsx,,,,,,,,,,,,,,0,0,0,0,,,,,23,0,23,0,,,,,,,,,,,,,,,,,,,,,,,,,,,,,,,,,,,,,,348.14973554100015,None,348.14973554100015,None,,,,,,,,,sub-26,09/01/2003,2: Female,16/10/2023,002,1: right,2023_Oct_16_1751,[FINAL]_fmri_multiplication,2021.2.3,59.92935000852774
block5.xlsx,,,,,,,,,,,,,,0,0,0,0,,,,,24,0,24,0,,,,,,,,,,,,,,,,,,,,,,,,,,,,,,,,,,,,,,349.14838661999966,None,349.14838661999966,None,,,,,,,,,sub-26,09/01/2003,2: Female,16/10/2023,002,1: right,2023_Oct_16_1751,[FINAL]_fmri_multiplication,2021.2.3,59.92935000852774
block5.xlsx,,,,,,,,,,,,,,0,0,0,0,,,,,25,0,25,0,,,,,,,,,,,,,,,,,,,,,,,,,,,,,,,,,,,,,,350.149631,None,350.149631,None,,,,,,,,,sub-26,09/01/2003,2: Female,16/10/2023,002,1: right,2023_Oct_16_1751,[FINAL]_fmri_multiplication,2021.2.3,59.92935000852774
block5.xlsx,,,,,,,,,,,,,,0,0,0,0,,,,,26,0,26,0,,,,,,,,,,,,,,,,,,,,,,,,,,,,,,,,,,,,,,351.149675,None,351.149675,None,,,,,,,,,sub-26,09/01/2003,2: Female,16/10/2023,002,1: right,2023_Oct_16_1751,[FINAL]_fmri_multiplication,2021.2.3,59.92935000852774
block5.xlsx,,,,,,,,,,,,,,0,0,0,0,,,,,27,0,27,0,,,,,,,,,,,,,,,,,,,,,,,,,,,,,,,,,,,,,,352.14965821999976,None,352.14965821999976,None,,,,,,,,,sub-26,09/01/2003,2: Female,16/10/2023,002,1: right,2023_Oct_16_1751,[FINAL]_fmri_multiplication,2021.2.3,59.92935000852774
block5.xlsx,,,,,,,,,,,,,,0,0,0,0,,,,,28,0,28,0,,,,,,,,,,,,,,,,,,,,,,,,,,,,,,,,,,,,,,353.14843851000023,None,353.14843851000023,None,,,,,,,,,sub-26,09/01/2003,2: Female,16/10/2023,002,1: right,2023_Oct_16_1751,[FINAL]_fmri_multiplication,2021.2.3,59.92935000852774
block5.xlsx,,,,,,,,,,,,,,0,0,0,0,,,,,29,0,29,0,,,,,,,,,,,,,,,,,,,,,,,,,,,,,,,,,,,,,,354.14997229599976,None,354.14997229599976,None,,,,,,,,,sub-26,09/01/2003,2: Female,16/10/2023,002,1: right,2023_Oct_16_1751,[FINAL]_fmri_multiplication,2021.2.3,59.92935000852774
block5.xlsx,,,,,,,,,,,,,,0,0,0,0,,,,,,,,,,,,,,,,,,,,,,,,,,,,,,,,,,,,,,,,,,,,,,,,,,,,,,,,,,sub-26,09/01/2003,2: Female,16/10/2023,002,1: right,2023_Oct_16_1751,[FINAL]_fmri_multiplication,2021.2.3,59.92935000852774
block6.xlsx,10,7.5,4.1,6 x 5,36,14,5 x 6 = 36,large-sized_low-interference,large-sized,low-interference,6,IncorrectRESP,d,0,1,1,1,0,0,0,0,,,,,,,,,,,,,355.1521646880001,None,365.1763527789999,None,365.64975169899935,None,367.6501904509996,None,368.4001213769998,None,368.6499593889994,None,368.6499593889994,None,a,0,0.7180098970002291,368.6499593889994,None,369.4000296,None,369.4000296,None,d,0.3359039789993403,369.4000296,None,369.76648505399953,None,,,,,,,,,,,,,sub-26,09/01/2003,2: Female,16/10/2023,002,1: right,2023_Oct_16_1751,[FINAL]_fmri_multiplication,2021.2.3,59.92935000852774
block6.xlsx,21.6,7.5,7.2,2 x 6,10,6,6 x 2 = 10,small-sized_low-interference,small-sized,low-interference,3,IncorrectRESP,d,0,1,1,1,0,1,1,1,,,,,,,,,,,,,,,373.86646423599996,None,374.36632379099956,None,376.3666305,None,377.1164071809999,None,377.36639685999944,None,377.36639685999944,None,a,0,0.8335357339992697,377.36639685999944,None,378.2162871,None,378.2162871,None,d,0.32776918499985186,378.2162871,None,378.566022,None,,,,,,,,,,,,,sub-26,09/01/2003,2: Female,16/10/2023,002,1: right,2023_Oct_16_1751,[FINAL]_fmri_multiplication,2021.2.3,59.92935000852774
block6.xlsx,36.3,7.5,13.8,6 x 7,42,23,7 x 6 = 42,large-sized_high-interference,large-sized,high-interference,22,CorrectRESP,a,0,1,1,1,0,2,2,2,,,,,,,,,,,,,,,385.76656757899946,None,386.26629046699964,None,388.2664408169994,None,389.01636426499954,None,389.2661897219996,None,389.2661897219996,None,d,0,0.877797421,389.2661897219996,None,390.1659856719998,None,390.1659856719998,None,d,0.6339705829996092,390.1659856719998,None,390.8326193639996,None,,,,,,,,,,,,,sub-26,09/01/2003,2: Female,16/10/2023,002,1: right,2023_Oct_16_1751,[FINAL]_fmri_multiplication,2021.2.3,59.92935000852774
block6.xlsx,57.6,7.5,3.7,3 x 7,21,11,7 x 3 = 21,small-sized_high-interference,small-sized,high-interference,13,CorrectRESP,a,0,1,1,1,0,3,3,3,,,,,,,,,,,,,,,404.6334426409994,None,405.13329051300025,None,407.13350400299987,None,407.8833094169995,None,408.1329528389997,None,408.1329528389997,None,d,0,0.6349901059993499,408.1329528389997,None,408.79927554200003,None,408.79927554200003,None,d,0.4168812309999339,408.79927554200003,None,409.2331669389996,None,,,,,,,,,,,,,sub-26,09/01/2003,2: Female,16/10/2023,002,1: right,2023_Oct_16_1751,[FINAL]_fmri_multiplication,2021.2.3,59.92935000852774
block6.xlsx,68.8,7.5,7.8,2 x 7,12,1,7 x 2 = 12,small-sized_low-interference,small-sized,low-interference,4,IncorrectRESP,d,0,1,1,1,0,4,4,4,,,,,,,,,,,,,,,412.93293320799967,None,413.43278838199967,None,415.4329896170002,None,416.1832794820002,None,416.4318623899999,None,416.4318623899999,None,a,0,0.6561213530003442,416.4318623899999,None,417.1164185759999,None,417.1164185759999,None,d,0.2595393179999519,417.1164185759999,None,417.39981647399964,None,,,,,,,,,,,,,sub-26,09/01/2003,2: Female,16/10/2023,002,1: right,2023_Oct_16_1751,[FINAL]_fmri_multiplication,2021.2.3,59.92935000852774
block6.xlsx,84.1,7.5,8.6,3 x 9,24,19,9 x 3 = 24,large-sized_high-interference,large-sized,high-interference,9,IncorrectRESP,d,0,1,1,1,0,5,5,5,,,,,,,,,,,,,,,425.1992942859997,None,425.69957174699994,None,427.69932696900014,None,428.4497979329999,None,428.70002073900014,None,428.70002073900014,None,a,0,0.8519241200001488,428.70002073900014,None,429.5816131239999,None,429.5816131239999,None,d,0.27442420100032905,429.5816131239999,None,429.88304305099973,None,,,,,,,,,,,,,sub-26,09/01/2003,2: Female,16/10/2023,002,1: right,2023_Oct_16_1751,[FINAL]_fmri_multiplication,2021.2.3,59.92935000852774
block6.xlsx,100.2,7.5,3.3,4 x 6,24,10,6 x 4 = 24,small-sized_high-interference,small-sized,high-interference,12,CorrectRESP,a,0,1,1,1,0,6,6,6,,,,,,,,,,,,,,,438.4830123339998,None,438.9831713679996,None,440.9835141419999,None,441.7334707,None,441.98324302999936,None,441.98324302999936,None,d,0,1.1846912279997923,441.98324302999936,None,443.1995299760001,None,443.1995299760001,None,d,0.7924286150000626,443.1995299760001,None,444.01650538099966,None,,,,,,,,,,,,,sub-26,09/01/2003,2: Female,16/10/2023,002,1: right,2023_Oct_16_1751,[FINAL]_fmri_multiplication,2021.2.3,59.92935000852774
block6.xlsx,111,7.5,6.3,9 x 2,16,2,2 x 9 = 16,small-sized_low-interference,small-sized,low-interference,7,IncorrectRESP,d,0,1,1,1,0,7,7,7,,,,,,,,,,,,,,,447.31641134799975,None,447.81641678899996,None,449.8165685570002,None,450.5665070269997,None,450.816209,None,450.816209,None,a,0,1.4878042880000066,450.816209,None,452.33287076800025,None,452.33287076800025,None,d,0.6190809660001833,452.33287076800025,None,452.9832479589995,None,,,,,,,,,,,,,sub-26,09/01/2003,2: Female,16/10/2023,002,1: right,2023_Oct_16_1751,[FINAL]_fmri_multiplication,2021.2.3,59.92935000852774
block6.xlsx,124.8,7.5,3.1,6 x 6,30,13,6 x 6 = 30,large-sized_low-interference,large-sized,low-interference,4,IncorrectRESP,d,0,1,1,1,0,8,8,8,,,,,,,,,,,,,,,459.2829774,None,459.78311678999944,None,461.7831719779997,None,462.53311311200014,None,462.7823423769996,None,462.7823423769996,None,a,0,0.689661286,462.7823423769996,None,463.4994095,None,463.4994095,None,d,0.34863000299992564,463.4994095,None,463.86594350299947,None,,,,,,,,,,,,,sub-26,09/01/2003,2: Female,16/10/2023,002,1: right,2023_Oct_16_1751,[FINAL]_fmri_multiplication,2021.2.3,59.92935000852774
block6.xlsx,135.4,7.5,2.7,5 x 4,16,8,4 x 5 = 16,small-sized_high-interference,small-sized,high-interference,8,IncorrectRESP,d,0,1,1,1,0,9,9,9,,,,,,,,,,,,,,,466.96650342199973,None,467.46612577199994,None,469.46662549199937,None,470.2169905,None,470.46621389199936,None,470.46621389199936,None,a,0,0.7577938980002727,470.46621389199936,None,471.2499006879998,None,471.2499006879998,None,d,0.5020736240003316,471.2499006879998,None,471.7835513709997,None,,,,,,,,,,,,,sub-26,09/01/2003,2: Female,16/10/2023,002,1: right,2023_Oct_16_1751,[FINAL]_fmri_multiplication,2021.2.3,59.92935000852774
block6.xlsx,145.6,7.5,5.1,5 x 5,25,3,5 x 5 = 25,small-sized_low-interference,small-sized,low-interference,3,CorrectRESP,a,0,1,1,1,0,10,10,10,,,,,,,,,,,,,,,474.4831411039995,None,474.98308771400025,None,476.9835490939995,None,477.7334130469999,None,477.98309200099993,None,477.98309200099993,None,d,0,0.6650535559992932,477.98309200099993,None,478.66583851499945,None,478.66583851499945,None,a,0.45417351700052677,478.66583851499945,None,479.1498009879997,None,,,,,,,,,,,,,sub-26,09/01/2003,2: Female,16/10/2023,002,1: right,2023_Oct_16_1751,[FINAL]_fmri_multiplication,2021.2.3,59.92935000852774
block6.xlsx,158.2,7.5,2.9,7 x 7,56,18,7 x 7 = 56,large-sized_low-interference,large-sized,low-interference,7,IncorrectRESP,d,0,1,1,1,0,11,11,11,,,,,,,,,,,,,,,484.2493303379997,None,484.7494296529994,None,486.7497819929995,None,487.4997080100002,None,487.7498365829997,None,487.7498365829997,None,a,0,0.7461653310001566,487.7498365829997,None,488.5158995599995,None,488.5158995599995,None,d,0.46806959199966514,488.5158995599995,None,489.01631937299953,None,,,,,,,,,,,,,sub-26,09/01/2003,2: Female,16/10/2023,002,1: right,2023_Oct_16_1751,[FINAL]_fmri_multiplication,2021.2.3,59.92935000852774
block6.xlsx,168.6,7.5,5.7,3 x 6,15,7,6 x 3 = 15,small-sized_high-interference,small-sized,high-interference,8,IncorrectRESP,d,0,1,1,1,0,12,12,12,,,,,,,,,,,,,,,491.91646556700016,None,492.41623049899954,None,494.4164264729998,None,495.1665181,None,495.4169560270002,None,495.4169560270002,None,a,0,0.7189781589995619,495.4169560270002,None,496.1665092149997,None,496.1665092149997,None,d,0.4334216799998103,496.1665092149997,None,496.63265113499983,None,,,,,,,,,,,,,sub-26,09/01/2003,2: Female,16/10/2023,002,1: right,2023_Oct_16_1751,[FINAL]_fmri_multiplication,2021.2.3,59.92935000852774
block6.xlsx,181.8,7.5,3,2 x 8,16,5,8 x 2 = 16,small-sized_low-interference,small-sized,low-interference,7,CorrectRESP,a,0,1,1,1,0,13,13,13,,,,,,,,,,,,,,,502.3331463,None,502.83185896800023,None,504.8335604539998,None,505.58355103399936,None,505.8321611659994,None,505.8321611659994,None,d,0,0.983927773,505.8321611659994,None,506.83302285099944,None,506.83302285099944,None,d,0.4949178329998176,506.83302285099944,None,507.34970415099997,None,,,,,,,,,,,,,sub-26,09/01/2003,2: Female,16/10/2023,002,1: right,2023_Oct_16_1751,[FINAL]_fmri_multiplication,2021.2.3,59.92935000852774
block6.xlsx,192.3,7.5,5.9,5 x 9,45,15,9 x 5 = 45,large-sized_low-interference,large-sized,low-interference,6,CorrectRESP,a,0,1,1,1,0,14,14,14,,,,,,,,,,,,,,,510.3501307059996,None,510.8498135509999,None,512.8496652169997,None,513.5997151989995,None,513.8495705830001,None,513.8495705830001,None,d,0,0.5503620249992309,513.8495705830001,None,514.4326551949998,None,514.4326551949998,None,d,0.4154184740000346,514.4326551949998,None,514.8659470289995,None,,,,,,,,,,,,,sub-26,09/01/2003,2: Female,16/10/2023,002,1: right,2023_Oct_16_1751,[FINAL]_fmri_multiplication,2021.2.3,59.92935000852774
block6.xlsx,205.7,7.5,2.1,4 x 3,12,9,3 x 4 = 12,small-sized_high-interference,small-sized,high-interference,10,CorrectRESP,a,0,1,1,1,0,15,15,15,,,,,,,,,,,,,,,520.7665712319995,None,521.2658762299998,None,523.2665072720001,None,524.0163831,None,524.2661237550001,None,524.2661237550001,None,d,0,0.5018497850005588,524.2661237550001,None,524.7983318340002,None,524.7983318340002,None,d,0.4016042880002715,524.7983318340002,None,525.2159682749998,None,,,,,,,,,,,,,sub-26,09/01/2003,2: Female,16/10/2023,002,1: right,2023_Oct_16_1751,[FINAL]_fmri_multiplication,2021.2.3,59.92935000852774
block6.xlsx,215.3,7.5,9.9,7 x 8,56,22,8 x 7 = 56,large-sized_high-interference,large-sized,high-interference,9,CorrectRESP,a,0,1,1,1,0,16,16,16,,,,,,,,,,,,,,,527.3162049490002,None,527.8149516550002,None,529.8164042339995,None,530.5665126,None,530.8149774240001,None,530.8149774240001,None,d,0,0.7930432800003473,530.8149774240001,None,531.6326931739995,None,531.6326931739995,None,d,0.39135608000015054,531.6326931739995,None,532.0490849609996,None,,,,,,,,,,,,,sub-26,09/01/2003,2: Female,16/10/2023,002,1: right,2023_Oct_16_1751,[FINAL]_fmri_multiplication,2021.2.3,59.92935000852774
block6.xlsx,232.7,7.5,2.2,8 x 3,21,12,3 x 8 = 21,small-sized_high-interference,small-sized,high-interference,13,IncorrectRESP,d,0,1,1,1,0,17,17,17,,,,,,,,,,,,,,,541.9469576629999,None,542.4420537819997,None,544.4502573849995,None,545.2002022340002,None,545.4497400199998,None,545.4497400199998,None,a,0,0.7743082760007383,545.4497400199998,None,546.2498862759994,None,546.2498862759994,None,d,0.31011316900003294,546.2498862759994,None,546.5828552969997,None,,,,,,,,,,,,,sub-26,09/01/2003,2: Female,16/10/2023,002,1: right,2023_Oct_16_1751,[FINAL]_fmri_multiplication,2021.2.3,59.92935000852774
block6.xlsx,242.4,7.5,7.9,9 x 9,81,16,9 x 9 = 81,large-sized_low-interference,large-sized,low-interference,6,CorrectRESP,a,0,1,1,1,0,18,18,18,,,,,,,,,,,,,,,548.7833884,None,549.2831115469999,None,551.2831471190002,None,552.0331477,None,552.2816179069996,None,552.2816179069996,None,d,0,1.238292439000361,552.2816179069996,None,553.5496018989998,None,553.5496018989998,None,d,0.45837925499927223,553.5496018989998,None,554.0329342919995,None,,,,,,,,,,,,,sub-26,09/01/2003,2: Female,16/10/2023,002,1: right,2023_Oct_16_1751,[FINAL]_fmri_multiplication,2021.2.3,59.92935000852774
block6.xlsx,257.8,7.5,8.3,9 x 4,32,20,4 x 9 = 32,large-sized_high-interference,large-sized,high-interference,9,IncorrectRESP,d,0,1,1,1,0,19,19,19,,,,,,,,,,,,,,,561.9332031209997,None,562.4330855829994,None,564.4326009059996,None,565.1831774659995,None,565.4316723900001,None,565.4316723900001,None,a,0,1.184213662,565.4316723900001,None,566.6492873380002,None,566.6492873380002,None,d,0.5107249939992471,566.6492873380002,None,567.1831076859999,None,,,,,,,,,,,,,sub-26,09/01/2003,2: Female,16/10/2023,002,1: right,2023_Oct_16_1751,[FINAL]_fmri_multiplication,2021.2.3,59.92935000852774
block6.xlsx,273.6,7.5,12.1,5 x 7,35,17,7 x 5 = 35,large-sized_low-interference,large-sized,low-interference,7,CorrectRESP,a,0,1,1,1,0,20,20,20,,,,,,,,,,,,,,,575.4806702059996,None,575.9751134509997,None,577.9835084249999,None,578.7335531769995,None,578.9825977,None,578.9825977,None,d,0,0.5133446340005321,578.9825977,None,579.5161195379997,None,579.5161195379997,None,d,0.3958582599998408,579.5161195379997,None,579.9331678049994,None,,,,,,,,,,,,,sub-26,09/01/2003,2: Female,16/10/2023,002,1: right,2023_Oct_16_1751,[FINAL]_fmri_multiplication,2021.2.3,59.92935000852774
block6.xlsx,293.2,7.5,4.1,4 x 8,28,24,8 x 4 = 28,large-sized_high-interference,large-sized,high-interference,25,IncorrectRESP,d,0,1,1,1,0,21,21,21,,,,,,,,,,,,,,,592.0330782129995,None,592.5315399629999,None,594.5331394579998,None,595.2831145,None,595.5335015949995,None,595.5335015949995,None,a,0,0.8024548739995225,595.5335015949995,None,596.3661579469999,None,596.3661579469999,None,d,0.5857899329994325,596.3661579469999,None,596.9822888809995,None,,,,,,,,,,,,,sub-26,09/01/2003,2: Female,16/10/2023,002,1: right,2023_Oct_16_1751,[FINAL]_fmri_multiplication,2021.2.3,59.92935000852774
block6.xlsx,304.8,7.5,6.7,4 x 4,16,4,4 x 4 = 16,small-sized_low-interference,small-sized,low-interference,5,CorrectRESP,a,0,1,1,1,0,22,22,22,,,,,,,,,,,,,,,601.0825309,None,601.5829999529997,None,603.5830632469997,None,604.3327216669995,None,604.5815216390001,None,604.5815216390001,None,d,0,0.6184065349998491,604.5815216390001,None,605.2328386230001,None,605.2328386230001,None,d,0.43921297199995024,605.2328386230001,None,605.6998666669997,None,,,,,,,,,,,,,sub-26,09/01/2003,2: Female,16/10/2023,002,1: right,2023_Oct_16_1751,[FINAL]_fmri_multiplication,2021.2.3,59.92935000852774
block6.xlsx,319,7.5,8.5,8 x 5,40,21,5 x 8 = 40,large-sized_high-interference,large-sized,high-interference,9,CorrectRESP,a,0,1,1,1,0,23,23,23,,,,,,,,,,,,,,,612.3968119339997,None,612.8915448259995,None,614.8997075979996,None,615.6499689479997,None,615.9008163159997,None,615.9008163159997,None,d,0,0.6671428050003669,615.9008163159997,None,616.5989289,None,616.5989289,None,d,0.4011246200007008,616.5989289,None,617.0168992979998,None,,,,,,,,,,,,,sub-26,09/01/2003,2: Female,16/10/2023,002,1: right,2023_Oct_16_1751,[FINAL]_fmri_multiplication,2021.2.3,59.92935000852774
block6.xlsx,,,,,,,,,,,,,,0,1,1,1,,,,,0,0,0,0,,,,,,,,,,,,,,,,,,,,,,,,,,,,,,,,,,,,,,625.5193138929999,None,625.5193138929999,None,,,,,,,,,sub-26,09/01/2003,2: Female,16/10/2023,002,1: right,2023_Oct_16_1751,[FINAL]_fmri_multiplication,2021.2.3,59.92935000852774
block6.xlsx,,,,,,,,,,,,,,0,1,1,1,,,,,1,0,1,0,,,,,,,,,,,,,,,,,,,,,,,,,,,,,,,,,,,,,,626.5339804799996,None,626.5339804799996,None,,,,,,,,,sub-26,09/01/2003,2: Female,16/10/2023,002,1: right,2023_Oct_16_1751,[FINAL]_fmri_multiplication,2021.2.3,59.92935000852774
block6.xlsx,,,,,,,,,,,,,,0,1,1,1,,,,,2,0,2,0,,,,,,,,,,,,,,,,,,,,,,,,,,,,,,,,,,,,,,627.5317723299995,None,627.5317723299995,None,,,,,,,,,sub-26,09/01/2003,2: Female,16/10/2023,002,1: right,2023_Oct_16_1751,[FINAL]_fmri_multiplication,2021.2.3,59.92935000852774
block6.xlsx,,,,,,,,,,,,,,0,1,1,1,,,,,3,0,3,0,,,,,,,,,,,,,,,,,,,,,,,,,,,,,,,,,,,,,,628.5333751170001,None,628.5333751170001,None,,,,,,,,,sub-26,09/01/2003,2: Female,16/10/2023,002,1: right,2023_Oct_16_1751,[FINAL]_fmri_multiplication,2021.2.3,59.92935000852774
block6.xlsx,,,,,,,,,,,,,,0,1,1,1,,,,,4,0,4,0,,,,,,,,,,,,,,,,,,,,,,,,,,,,,,,,,,,,,,629.5321529169996,None,629.5321529169996,None,,,,,,,,,sub-26,09/01/2003,2: Female,16/10/2023,002,1: right,2023_Oct_16_1751,[FINAL]_fmri_multiplication,2021.2.3,59.92935000852774
block6.xlsx,,,,,,,,,,,,,,0,1,1,1,,,,,5,0,5,0,,,,,,,,,,,,,,,,,,,,,,,,,,,,,,,,,,,,,,630.5338186939998,None,630.5338186939998,None,,,,,,,,,sub-26,09/01/2003,2: Female,16/10/2023,002,1: right,2023_Oct_16_1751,[FINAL]_fmri_multiplication,2021.2.3,59.92935000852774
block6.xlsx,,,,,,,,,,,,,,0,1,1,1,,,,,6,0,6,0,,,,,,,,,,,,,,,,,,,,,,,,,,,,,,,,,,,,,,631.5332248670002,None,631.5332248670002,None,,,,,,,,,sub-26,09/01/2003,2: Female,16/10/2023,002,1: right,2023_Oct_16_1751,[FINAL]_fmri_multiplication,2021.2.3,59.92935000852774
block6.xlsx,,,,,,,,,,,,,,0,1,1,1,,,,,7,0,7,0,,,,,,,,,,,,,,,,,,,,,,,,,,,,,,,,,,,,,,632.5332222839997,None,632.5332222839997,None,,,,,,,,,sub-26,09/01/2003,2: Female,16/10/2023,002,1: right,2023_Oct_16_1751,[FINAL]_fmri_multiplication,2021.2.3,59.92935000852774
block6.xlsx,,,,,,,,,,,,,,0,1,1,1,,,,,8,0,8,0,,,,,,,,,,,,,,,,,,,,,,,,,,,,,,,,,,,,,,633.5334860040002,None,633.5334860040002,None,,,,,,,,,sub-26,09/01/2003,2: Female,16/10/2023,002,1: right,2023_Oct_16_1751,[FINAL]_fmri_multiplication,2021.2.3,59.92935000852774
block6.xlsx,,,,,,,,,,,,,,0,1,1,1,,,,,9,0,9,0,,,,,,,,,,,,,,,,,,,,,,,,,,,,,,,,,,,,,,634.5327873259994,None,634.5327873259994,None,,,,,,,,,sub-26,09/01/2003,2: Female,16/10/2023,002,1: right,2023_Oct_16_1751,[FINAL]_fmri_multiplication,2021.2.3,59.92935000852774
block6.xlsx,,,,,,,,,,,,,,0,1,1,1,,,,,10,0,10,0,,,,,,,,,,,,,,,,,,,,,,,,,,,,,,,,,,,,,,635.5328238920001,None,635.5328238920001,None,,,,,,,,,sub-26,09/01/2003,2: Female,16/10/2023,002,1: right,2023_Oct_16_1751,[FINAL]_fmri_multiplication,2021.2.3,59.92935000852774
block6.xlsx,,,,,,,,,,,,,,0,1,1,1,,,,,11,0,11,0,,,,,,,,,,,,,,,,,,,,,,,,,,,,,,,,,,,,,,636.5332831,None,636.5332831,None,,,,,,,,,sub-26,09/01/2003,2: Female,16/10/2023,002,1: right,2023_Oct_16_1751,[FINAL]_fmri_multiplication,2021.2.3,59.92935000852774
block6.xlsx,,,,,,,,,,,,,,0,1,1,1,,,,,12,0,12,0,,,,,,,,,,,,,,,,,,,,,,,,,,,,,,,,,,,,,,637.5321068859994,None,637.5321068859994,None,,,,,,,,,sub-26,09/01/2003,2: Female,16/10/2023,002,1: right,2023_Oct_16_1751,[FINAL]_fmri_multiplication,2021.2.3,59.92935000852774
block6.xlsx,,,,,,,,,,,,,,0,1,1,1,,,,,13,0,13,0,,,,,,,,,,,,,,,,,,,,,,,,,,,,,,,,,,,,,,638.5331805690003,None,638.5331805690003,None,,,,,,,,,sub-26,09/01/2003,2: Female,16/10/2023,002,1: right,2023_Oct_16_1751,[FINAL]_fmri_multiplication,2021.2.3,59.92935000852774
block6.xlsx,,,,,,,,,,,,,,0,1,1,1,,,,,14,0,14,0,,,,,,,,,,,,,,,,,,,,,,,,,,,,,,,,,,,,,,639.5332617,None,639.5332617,None,,,,,,,,,sub-26,09/01/2003,2: Female,16/10/2023,002,1: right,2023_Oct_16_1751,[FINAL]_fmri_multiplication,2021.2.3,59.92935000852774
block6.xlsx,,,,,,,,,,,,,,0,1,1,1,,,,,15,0,15,0,,,,,,,,,,,,,,,,,,,,,,,,,,,,,,,,,,,,,,640.5336365889998,None,640.5336365889998,None,,,,,,,,,sub-26,09/01/2003,2: Female,16/10/2023,002,1: right,2023_Oct_16_1751,[FINAL]_fmri_multiplication,2021.2.3,59.92935000852774
block6.xlsx,,,,,,,,,,,,,,0,1,1,1,,,,,16,0,16,0,,,,,,,,,,,,,,,,,,,,,,,,,,,,,,,,,,,,,,641.5337111749996,None,641.5337111749996,None,,,,,,,,,sub-26,09/01/2003,2: Female,16/10/2023,002,1: right,2023_Oct_16_1751,[FINAL]_fmri_multiplication,2021.2.3,59.92935000852774
block6.xlsx,,,,,,,,,,,,,,0,1,1,1,,,,,17,0,17,0,,,,,,,,,,,,,,,,,,,,,,,,,,,,,,,,,,,,,,642.5338098709999,None,642.5338098709999,None,,,,,,,,,sub-26,09/01/2003,2: Female,16/10/2023,002,1: right,2023_Oct_16_1751,[FINAL]_fmri_multiplication,2021.2.3,59.92935000852774
block6.xlsx,,,,,,,,,,,,,,0,1,1,1,,,,,18,0,18,0,,,,,,,,,,,,,,,,,,,,,,,,,,,,,,,,,,,,,,643.5341947589995,None,643.5341947589995,None,,,,,,,,,sub-26,09/01/2003,2: Female,16/10/2023,002,1: right,2023_Oct_16_1751,[FINAL]_fmri_multiplication,2021.2.3,59.92935000852774
block6.xlsx,,,,,,,,,,,,,,0,1,1,1,,,,,19,0,19,0,,,,,,,,,,,,,,,,,,,,,,,,,,,,,,,,,,,,,,644.5321972909996,None,644.5321972909996,None,,,,,,,,,sub-26,09/01/2003,2: Female,16/10/2023,002,1: right,2023_Oct_16_1751,[FINAL]_fmri_multiplication,2021.2.3,59.92935000852774
block6.xlsx,,,,,,,,,,,,,,0,1,1,1,,,,,20,0,20,0,,,,,,,,,,,,,,,,,,,,,,,,,,,,,,,,,,,,,,645.5336533809996,None,645.5336533809996,None,,,,,,,,,sub-26,09/01/2003,2: Female,16/10/2023,002,1: right,2023_Oct_16_1751,[FINAL]_fmri_multiplication,2021.2.3,59.92935000852774
block6.xlsx,,,,,,,,,,,,,,0,1,1,1,,,,,21,0,21,0,,,,,,,,,,,,,,,,,,,,,,,,,,,,,,,,,,,,,,646.5360364629996,None,646.5360364629996,None,,,,,,,,,sub-26,09/01/2003,2: Female,16/10/2023,002,1: right,2023_Oct_16_1751,[FINAL]_fmri_multiplication,2021.2.3,59.92935000852774
block6.xlsx,,,,,,,,,,,,,,0,1,1,1,,,,,22,0,22,0,,,,,,,,,,,,,,,,,,,,,,,,,,,,,,,,,,,,,,647.5331049729994,None,647.5331049729994,None,,,,,,,,,sub-26,09/01/2003,2: Female,16/10/2023,002,1: right,2023_Oct_16_1751,[FINAL]_fmri_multiplication,2021.2.3,59.92935000852774
block6.xlsx,,,,,,,,,,,,,,0,1,1,1,,,,,23,0,23,0,,,,,,,,,,,,,,,,,,,,,,,,,,,,,,,,,,,,,,648.5335472249999,None,648.5335472249999,None,,,,,,,,,sub-26,09/01/2003,2: Female,16/10/2023,002,1: right,2023_Oct_16_1751,[FINAL]_fmri_multiplication,2021.2.3,59.92935000852774
block6.xlsx,,,,,,,,,,,,,,0,1,1,1,,,,,24,0,24,0,,,,,,,,,,,,,,,,,,,,,,,,,,,,,,,,,,,,,,649.5334498279999,None,649.5334498279999,None,,,,,,,,,sub-26,09/01/2003,2: Female,16/10/2023,002,1: right,2023_Oct_16_1751,[FINAL]_fmri_multiplication,2021.2.3,59.92935000852774
block6.xlsx,,,,,,,,,,,,,,0,1,1,1,,,,,25,0,25,0,,,,,,,,,,,,,,,,,,,,,,,,,,,,,,,,,,,,,,650.5334412900002,None,650.5334412900002,None,,,,,,,,,sub-26,09/01/2003,2: Female,16/10/2023,002,1: right,2023_Oct_16_1751,[FINAL]_fmri_multiplication,2021.2.3,59.92935000852774
block6.xlsx,,,,,,,,,,,,,,0,1,1,1,,,,,26,0,26,0,,,,,,,,,,,,,,,,,,,,,,,,,,,,,,,,,,,,,,651.5332995029994,None,651.5332995029994,None,,,,,,,,,sub-26,09/01/2003,2: Female,16/10/2023,002,1: right,2023_Oct_16_1751,[FINAL]_fmri_multiplication,2021.2.3,59.92935000852774
block6.xlsx,,,,,,,,,,,,,,0,1,1,1,,,,,27,0,27,0,,,,,,,,,,,,,,,,,,,,,,,,,,,,,,,,,,,,,,652.5337203429999,None,652.5337203429999,None,,,,,,,,,sub-26,09/01/2003,2: Female,16/10/2023,002,1: right,2023_Oct_16_1751,[FINAL]_fmri_multiplication,2021.2.3,59.92935000852774
block6.xlsx,,,,,,,,,,,,,,0,1,1,1,,,,,28,0,28,0,,,,,,,,,,,,,,,,,,,,,,,,,,,,,,,,,,,,,,653.5331058219999,None,653.5331058219999,None,,,,,,,,,sub-26,09/01/2003,2: Female,16/10/2023,002,1: right,2023_Oct_16_1751,[FINAL]_fmri_multiplication,2021.2.3,59.92935000852774
block6.xlsx,,,,,,,,,,,,,,0,1,1,1,,,,,29,0,29,0,,,,,,,,,,,,,,,,,,,,,,,,,,,,,,,,,,,,,,654.5329853389994,None,654.5329853389994,None,,,,,,,,,sub-26,09/01/2003,2: Female,16/10/2023,002,1: right,2023_Oct_16_1751,[FINAL]_fmri_multiplication,2021.2.3,59.92935000852774
block6.xlsx,,,,,,,,,,,,,,0,1,1,1,,,,,,,,,,,,,,,,,,,,,,,,,,,,,,,,,,,,,,,,,,,,,,,,,,,,,,,,,,sub-26,09/01/2003,2: Female,16/10/2023,002,1: right,2023_Oct_16_1751,[FINAL]_fmri_multiplication,2021.2.3,59.92935000852774
block7.xlsx,10,7.5,4,2 x 7,14,1,7 x 2 = 14,small-sized_low-interference,small-sized,low-interference,4,CorrectRESP,a,0,2,2,2,0,0,0,0,,,,,,,,,,,,,655.5335689019994,None,665.5575827089997,None,666.0325154029997,None,668.0328923460002,None,668.7826547,None,669.0329228760002,None,669.0329228760002,None,d,0,0.7030150310001773,669.0329228760002,None,669.7664826529999,None,669.7664826529999,None,d,0.4496473649996915,669.7664826529999,None,670.2324865159999,None,,,,,,,,,,,,,sub-26,09/01/2003,2: Female,16/10/2023,002,1: right,2023_Oct_16_1751,[FINAL]_fmri_multiplication,2021.2.3,59.92935000852774
block7.xlsx,21.5,7.5,14.2,3 x 6,15,7,6 x 3 = 15,small-sized_high-interference,small-sized,high-interference,8,IncorrectRESP,d,0,2,2,2,0,1,1,1,,,,,,,,,,,,,,,674.2329381190002,None,674.7328731259995,None,676.7328474719998,None,677.4830393619995,None,677.7330058199996,None,677.7330058199996,None,a,0,0.6589515779996873,677.7330058199996,None,678.4161691219997,None,678.4161691219997,None,d,0.2558435979999558,678.4161691219997,None,678.6999168100001,None,,,,,,,,,,,,,sub-26,09/01/2003,2: Female,16/10/2023,002,1: right,2023_Oct_16_1751,[FINAL]_fmri_multiplication,2021.2.3,59.92935000852774
block7.xlsx,43.2,7.5,5.1,2 x 7,12,1,7 x 2 = 12,small-sized_low-interference,small-sized,low-interference,4,IncorrectRESP,d,0,2,2,2,0,2,2,2,,,,,,,,,,,,,,,692.8997611939994,None,693.3993997609996,None,695.3997499239995,None,696.1497929859997,None,696.4008196859995,None,696.4008196859995,None,a,0,0.8312359189994822,696.4008196859995,None,697.2493586599994,None,697.2493586599994,None,d,0.3586842719996639,697.2493586599994,None,697.6326945539995,None,,,,,,,,,,,,,sub-26,09/01/2003,2: Female,16/10/2023,002,1: right,2023_Oct_16_1751,[FINAL]_fmri_multiplication,2021.2.3,59.92935000852774
block7.xlsx,55.8,7.5,3.4,5 x 9,40,15,9 x 5 = 40,large-sized_low-interference,large-sized,low-interference,6,IncorrectRESP,d,0,2,2,2,0,3,3,3,,,,,,,,,,,,,,,702.7332134749995,None,703.2318721729998,None,705.2326167229994,None,705.9830306,None,706.2328367290002,None,706.2328367290002,None,a,0,0.847232926,706.2328367290002,None,707.0991686,None,707.0991686,None,d,0.20483891799995035,707.0991686,None,707.3330179249997,None,,,,,,,,,,,,,sub-26,09/01/2003,2: Female,16/10/2023,002,1: right,2023_Oct_16_1751,[FINAL]_fmri_multiplication,2021.2.3,59.92935000852774
block7.xlsx,66.7,7.5,2.9,5 x 5,30,3,5 x 5 = 30,small-sized_low-interference,small-sized,low-interference,3,IncorrectRESP,d,0,2,2,2,0,4,4,4,,,,,,,,,,,,,,,710.7330908019994,None,711.2315066519996,None,713.2330329659999,None,713.9833995889994,None,714.2332473,None,714.2332473,None,a,0,0.622754437,714.2332473,None,714.8834838339999,None,714.8834838339999,None,d,0.26050162600040494,714.8834838339999,None,715.1634835089999,None,,,,,,,,,,,,,sub-26,09/01/2003,2: Female,16/10/2023,002,1: right,2023_Oct_16_1751,[FINAL]_fmri_multiplication,2021.2.3,59.92935000852774
block7.xlsx,77.1,7.5,13.9,5 x 7,40,17,7 x 5 = 40,large-sized_low-interference,large-sized,low-interference,7,IncorrectRESP,d,0,2,2,2,0,5,5,5,,,,,,,,,,,,,,,718.0666018840002,None,718.5667999179996,None,720.5670592759998,None,721.3169110179997,None,721.5673774709994,None,721.5673774709994,None,a,0,0.6886714239999492,721.5673774709994,None,722.2829429,None,722.2829429,None,d,0.3410555810005462,722.2829429,None,722.6499525889994,None,,,,,,,,,,,,,sub-26,09/01/2003,2: Female,16/10/2023,002,1: right,2023_Oct_16_1751,[FINAL]_fmri_multiplication,2021.2.3,59.92935000852774
block7.xlsx,98.5,7.5,2.6,2 x 8,16,5,8 x 2 = 16,small-sized_low-interference,small-sized,low-interference,7,CorrectRESP,a,0,2,2,2,0,6,6,6,,,,,,,,,,,,,,,736.5497479300002,None,737.0494685,None,739.0498279499998,None,739.7997105459999,None,740.0492651679997,None,740.0492651679997,None,a,1,1.8787012819993834,740.0492651679997,None,741.9492636260002,None,741.9492636260002,None,d,0.8666657659996417,741.9492636260002,None,742.8326272590002,None,,,,,,,,,,,,,sub-26,09/01/2003,2: Female,16/10/2023,002,1: right,2023_Oct_16_1751,[FINAL]_fmri_multiplication,2021.2.3,59.92935000852774
block7.xlsx,108.6,7.5,11.6,3 x 6,18,7,6 x 3 = 18,small-sized_high-interference,small-sized,high-interference,8,CorrectRESP,a,0,2,2,2,0,7,7,7,,,,,,,,,,,,,,,745.4326957459998,None,745.9326753759997,None,747.9332642829995,None,748.6827124009997,None,748.9331644180002,None,748.9331644180002,None,d,0,0.5948048179998295,748.9331644180002,None,749.5497546709994,None,749.5497546709994,None,d,0.38618346600014775,749.5497546709994,None,749.9666447449999,None,,,,,,,,,,,,,sub-26,09/01/2003,2: Female,16/10/2023,002,1: right,2023_Oct_16_1751,[FINAL]_fmri_multiplication,2021.2.3,59.92935000852774
block7.xlsx,127.7,7.5,5,5 x 5,25,3,5 x 5 = 25,small-sized_low-interference,small-sized,low-interference,3,CorrectRESP,a,0,2,2,2,0,8,8,8,,,,,,,,,,,,,,,761.5666249259993,None,762.0664276239995,None,764.0666250549993,None,764.8166115699996,None,765.0659466259995,None,765.0659466259995,None,d,0,0.6299948839996432,765.0659466259995,None,765.7159751190002,None,765.7159751190002,None,d,0.3880772100001195,765.7159751190002,None,766.1332180869995,None,,,,,,,,,,,,,sub-26,09/01/2003,2: Female,16/10/2023,002,1: right,2023_Oct_16_1751,[FINAL]_fmri_multiplication,2021.2.3,59.92935000852774
block7.xlsx,140.2,7.5,2.8,6 x 6,36,13,6 x 6 = 36,large-sized_low-interference,large-sized,low-interference,4,CorrectRESP,a,0,2,2,2,0,9,9,9,,,,,,,,,,,,,,,771.1327412909995,None,771.6329060749995,None,773.6329092,None,774.3830128929994,None,774.6326064360001,None,774.6326064360001,None,d,0,0.5673607640001137,774.6326064360001,None,775.2330830760002,None,775.2330830760002,None,d,0.3348582320004425,775.2330830760002,None,775.5996937689997,None,,,,,,,,,,,,,sub-26,09/01/2003,2: Female,16/10/2023,002,1: right,2023_Oct_16_1751,[FINAL]_fmri_multiplication,2021.2.3,59.92935000852774
block7.xlsx,150.5,7.5,2,3 x 7,21,11,7 x 3 = 21,small-sized_high-interference,small-sized,high-interference,13,CorrectRESP,a,0,2,2,2,0,10,10,10,,,,,,,,,,,,,,,778.3996715109997,None,778.8992120659996,None,780.8998290929994,None,781.6498237819997,None,781.8996485819998,None,781.8996485819998,None,d,0,0.5003013280002051,781.8996485819998,None,782.4331187159996,None,782.4331187159996,None,d,0.36684834600055183,782.4331187159996,None,782.8165626999998,None,,,,,,,,,,,,,sub-26,09/01/2003,2: Female,16/10/2023,002,1: right,2023_Oct_16_1751,[FINAL]_fmri_multiplication,2021.2.3,59.92935000852774
block7.xlsx,160,7.5,2.7,6 x 7,48,23,7 x 6 = 48,large-sized_high-interference,large-sized,high-interference,22,IncorrectRESP,d,0,2,2,2,0,11,11,11,,,,,,,,,,,,,,,784.8166351680002,None,785.3155164079999,None,787.3163303470001,None,788.0668723549998,None,788.3169706449999,None,788.3169706449999,None,a,0,0.8430635400000028,788.3169706449999,None,789.1829884,None,789.1829884,None,d,0.33695487000022695,789.1829884,None,789.5501904519997,None,,,,,,,,,,,,,sub-26,09/01/2003,2: Female,16/10/2023,002,1: right,2023_Oct_16_1751,[FINAL]_fmri_multiplication,2021.2.3,59.92935000852774
block7.xlsx,170.2,7.5,7,5 x 7,35,17,7 x 5 = 35,large-sized_low-interference,large-sized,low-interference,7,CorrectRESP,a,0,2,2,2,0,12,12,12,,,,,,,,,,,,,,,792.2501719410002,None,792.7498398689995,None,794.7500628150001,None,795.4997293139995,None,795.7494599800002,None,795.7494599800002,None,d,0,0.5145458340002733,795.7494599800002,None,796.2824293980002,None,796.2824293980002,None,d,0.3656206100004056,796.2824293980002,None,796.6661681819996,None,,,,,,,,,,,,,sub-26,09/01/2003,2: Female,16/10/2023,002,1: right,2023_Oct_16_1751,[FINAL]_fmri_multiplication,2021.2.3,59.92935000852774
block7.xlsx,184.7,7.5,3,3 x 9,27,19,9 x 3 = 27,large-sized_high-interference,large-sized,high-interference,9,CorrectRESP,a,0,2,2,2,0,13,13,13,,,,,,,,,,,,,,,803.666517,None,804.1664282659995,None,806.1658119590002,None,806.9164041659997,None,807.1662619199997,None,807.1662619199997,None,d,0,0.41768792399943777,807.1662619199997,None,807.6156906279994,None,807.6156906279994,None,d,0.31228009999995265,807.6156906279994,None,807.9493027379995,None,,,,,,,,,,,,,sub-26,09/01/2003,2: Female,16/10/2023,002,1: right,2023_Oct_16_1751,[FINAL]_fmri_multiplication,2021.2.3,59.92935000852774
block7.xlsx,195.2,7.5,7.1,4 x 3,15,9,3 x 4 = 15,small-sized_high-interference,small-sized,high-interference,10,IncorrectRESP,d,0,2,2,2,0,14,14,14,,,,,,,,,,,,,,,810.9496947050002,None,811.4495016229994,None,813.4497638729999,None,814.1996811929994,None,814.4483925630002,None,814.4483925630002,None,a,0,1.0475798089992168,814.4483925630002,None,815.5159385449997,None,815.5159385449997,None,d,0.6200011720002294,815.5159385449997,None,816.1661532070002,None,,,,,,,,,,,,,sub-26,09/01/2003,2: Female,16/10/2023,002,1: right,2023_Oct_16_1751,[FINAL]_fmri_multiplication,2021.2.3,59.92935000852774
block7.xlsx,209.8,7.5,3.9,2 x 8,18,5,8 x 2 = 18,small-sized_low-interference,small-sized,low-interference,7,IncorrectRESP,d,0,2,2,2,0,15,15,15,,,,,,,,,,,,,,,823.2639852,None,823.7681785719997,None,825.7835746860001,None,826.5335713459999,None,826.7832954019996,None,826.7832954019996,None,a,0,0.7206494580004801,826.7832954019996,None,827.5334012879994,None,827.5334012879994,None,d,0.17857266800001526,827.5334012879994,None,827.7329526630001,None,,,,,,,,,,,,,sub-26,09/01/2003,2: Female,16/10/2023,002,1: right,2023_Oct_16_1751,[FINAL]_fmri_multiplication,2021.2.3,59.92935000852774
block7.xlsx,221.2,7.5,13.2,8 x 5,40,21,5 x 8 = 40,large-sized_high-interference,large-sized,high-interference,9,CorrectRESP,a,0,2,2,2,0,16,16,16,,,,,,,,,,,,,,,831.6327198669997,None,832.1328893769996,None,834.1330447689998,None,834.8833100410002,None,835.1481356200002,None,835.1481356200002,None,d,0,0.6438036119998287,835.1481356200002,None,835.8147580770001,None,835.8147580770001,None,d,0.3452225430000908,835.8147580770001,None,836.1813365,None,,,,,,,,,,,,,sub-26,09/01/2003,2: Female,16/10/2023,002,1: right,2023_Oct_16_1751,[FINAL]_fmri_multiplication,2021.2.3,59.92935000852774
block7.xlsx,241.9,7.5,8.7,3 x 7,24,11,7 x 3 = 24,small-sized_high-interference,small-sized,high-interference,13,IncorrectRESP,d,0,2,2,2,0,17,17,17,,,,,,,,,,,,,,,849.3830678439999,None,849.8816923989998,None,851.8831515739994,None,852.6333146,None,852.8820631059998,None,852.8820631059998,None,a,0,0.7579529229997206,852.8820631059998,None,853.6661609900002,None,853.6661609900002,None,d,0.26978908000000956,853.6661609900002,None,853.9661181459996,None,,,,,,,,,,,,,sub-26,09/01/2003,2: Female,16/10/2023,002,1: right,2023_Oct_16_1751,[FINAL]_fmri_multiplication,2021.2.3,59.92935000852774
block7.xlsx,258.1,7.5,8.1,6 x 6,30,13,6 x 6 = 30,large-sized_low-interference,large-sized,low-interference,4,IncorrectRESP,d,0,2,2,2,0,18,18,18,,,,,,,,,,,,,,,862.6663948300002,None,863.1651662260001,None,865.1670966719994,None,865.9163049889994,None,866.1673221679994,None,866.1673221679994,None,a,0,0.6487886719996823,866.1673221679994,None,866.8316429739998,None,866.8316429739998,None,d,0.3522235210002691,866.8316429739998,None,867.2164040560001,None,,,,,,,,,,,,,sub-26,09/01/2003,2: Female,16/10/2023,002,1: right,2023_Oct_16_1751,[FINAL]_fmri_multiplication,2021.2.3,59.92935000852774
block7.xlsx,273.7,7.5,8.2,8 x 5,45,21,5 x 8 = 45,large-sized_high-interference,large-sized,high-interference,9,IncorrectRESP,d,0,2,2,2,0,19,19,19,,,,,,,,,,,,,,,875.3165146269994,None,875.8152335989998,None,877.8163746629998,None,878.5664780789994,None,878.8161803470002,None,878.8161803470002,None,a,0,0.7918089739996503,878.8161803470002,None,879.6326579509996,None,879.6326579509996,None,d,0.39127949600060674,879.6326579509996,None,880.0494371,None,,,,,,,,,,,,,sub-26,09/01/2003,2: Female,16/10/2023,002,1: right,2023_Oct_16_1751,[FINAL]_fmri_multiplication,2021.2.3,59.92935000852774
block7.xlsx,289.4,7.5,5.5,4 x 3,12,9,3 x 4 = 12,small-sized_high-interference,small-sized,high-interference,10,CorrectRESP,a,0,2,2,2,0,20,20,20,,,,,,,,,,,,,,,888.2498799670002,None,888.7495929079996,None,890.7495902720002,None,891.5003262099999,None,891.7501614319999,None,891.7501614319999,None,d,0,0.6659492560002036,891.7501614319999,None,892.4321399780001,None,892.4321399780001,None,d,0.43984897600057593,892.4321399780001,None,892.9002953620002,None,,,,,,,,,,,,,sub-26,09/01/2003,2: Female,16/10/2023,002,1: right,2023_Oct_16_1751,[FINAL]_fmri_multiplication,2021.2.3,59.92935000852774
block7.xlsx,302.4,7.5,4.8,3 x 9,24,19,9 x 3 = 24,large-sized_high-interference,large-sized,high-interference,9,IncorrectRESP,d,0,2,2,2,0,21,21,21,,,,,,,,,,,,,,,898.4001634119995,None,898.8982781989998,None,900.9004212969994,None,901.6504461969998,None,901.8992499449996,None,901.8992499449996,None,a,0,0.9408018889998857,901.8992499449996,None,902.8658227320002,None,902.8658227320002,None,d,0.36620538599981955,902.8658227320002,None,903.2493580370001,None,,,,,,,,,,,,,sub-26,09/01/2003,2: Female,16/10/2023,002,1: right,2023_Oct_16_1751,[FINAL]_fmri_multiplication,2021.2.3,59.92935000852774
block7.xlsx,314.7,7.5,2.5,5 x 9,45,15,9 x 5 = 45,large-sized_low-interference,large-sized,low-interference,6,CorrectRESP,a,0,2,2,2,0,22,22,22,,,,,,,,,,,,,,,908.0494652560001,None,908.5511395879994,None,910.5666197959999,None,911.3165882160001,None,911.5661710059994,None,911.5661710059994,None,d,0,0.5857696029997896,911.5661710059994,None,912.1830388199996,None,912.1830388199996,None,d,0.36892662400077825,912.1830388199996,None,912.5831042139998,None,,,,,,,,,,,,,sub-26,09/01/2003,2: Female,16/10/2023,002,1: right,2023_Oct_16_1751,[FINAL]_fmri_multiplication,2021.2.3,59.92935000852774
block7.xlsx,324.7,7.5,2.8,6 x 7,42,23,7 x 6 = 42,large-sized_high-interference,large-sized,high-interference,22,CorrectRESP,a,0,2,2,2,0,23,23,23,,,,,,,,,,,,,,,915.0823647,None,915.5827734260001,None,917.5830088,None,918.3330253029999,None,918.5826240770002,None,918.5826240770002,None,a,1,0.921380932,918.5826240770002,None,919.5326383269994,None,919.5326383269994,None,d,0.43536365999989357,919.5326383269994,None,919.9992908650001,None,,,,,,,,,,,,,sub-26,09/01/2003,2: Female,16/10/2023,002,1: right,2023_Oct_16_1751,[FINAL]_fmri_multiplication,2021.2.3,59.92935000852774
block7.xlsx,,,,,,,,,,,,,,0,2,2,2,,,,,0,0,0,0,,,,,,,,,,,,,,,,,,,,,,,,,,,,,,,,,,,,,,922.8021049569998,None,922.8021049569998,None,,,,,,,,,sub-26,09/01/2003,2: Female,16/10/2023,002,1: right,2023_Oct_16_1751,[FINAL]_fmri_multiplication,2021.2.3,59.92935000852774
block7.xlsx,,,,,,,,,,,,,,0,2,2,2,,,,,1,0,1,0,,,,,,,,,,,,,,,,,,,,,,,,,,,,,,,,,,,,,,923.8153989269995,None,923.8153989269995,None,,,,,,,,,sub-26,09/01/2003,2: Female,16/10/2023,002,1: right,2023_Oct_16_1751,[FINAL]_fmri_multiplication,2021.2.3,59.92935000852774
block7.xlsx,,,,,,,,,,,,,,0,2,2,2,,,,,2,0,2,0,,,,,,,,,,,,,,,,,,,,,,,,,,,,,,,,,,,,,,924.8170677369999,None,924.8170677369999,None,,,,,,,,,sub-26,09/01/2003,2: Female,16/10/2023,002,1: right,2023_Oct_16_1751,[FINAL]_fmri_multiplication,2021.2.3,59.92935000852774
block7.xlsx,,,,,,,,,,,,,,0,2,2,2,,,,,3,0,3,0,,,,,,,,,,,,,,,,,,,,,,,,,,,,,,,,,,,,,,925.8168583790002,None,925.8168583790002,None,,,,,,,,,sub-26,09/01/2003,2: Female,16/10/2023,002,1: right,2023_Oct_16_1751,[FINAL]_fmri_multiplication,2021.2.3,59.92935000852774
block7.xlsx,,,,,,,,,,,,,,0,2,2,2,,,,,4,0,4,0,,,,,,,,,,,,,,,,,,,,,,,,,,,,,,,,,,,,,,926.8166548419995,None,926.8166548419995,None,,,,,,,,,sub-26,09/01/2003,2: Female,16/10/2023,002,1: right,2023_Oct_16_1751,[FINAL]_fmri_multiplication,2021.2.3,59.92935000852774
block7.xlsx,,,,,,,,,,,,,,0,2,2,2,,,,,5,0,5,0,,,,,,,,,,,,,,,,,,,,,,,,,,,,,,,,,,,,,,927.8174871269994,None,927.8174871269994,None,,,,,,,,,sub-26,09/01/2003,2: Female,16/10/2023,002,1: right,2023_Oct_16_1751,[FINAL]_fmri_multiplication,2021.2.3,59.92935000852774
block7.xlsx,,,,,,,,,,,,,,0,2,2,2,,,,,6,0,6,0,,,,,,,,,,,,,,,,,,,,,,,,,,,,,,,,,,,,,,928.8187602,None,928.8187602,None,,,,,,,,,sub-26,09/01/2003,2: Female,16/10/2023,002,1: right,2023_Oct_16_1751,[FINAL]_fmri_multiplication,2021.2.3,59.92935000852774
block7.xlsx,,,,,,,,,,,,,,0,2,2,2,,,,,7,0,7,0,,,,,,,,,,,,,,,,,,,,,,,,,,,,,,,,,,,,,,929.8190638879996,None,929.8190638879996,None,,,,,,,,,sub-26,09/01/2003,2: Female,16/10/2023,002,1: right,2023_Oct_16_1751,[FINAL]_fmri_multiplication,2021.2.3,59.92935000852774
block7.xlsx,,,,,,,,,,,,,,0,2,2,2,,,,,8,0,8,0,,,,,,,,,,,,,,,,,,,,,,,,,,,,,,,,,,,,,,930.8180988429995,None,930.8180988429995,None,,,,,,,,,sub-26,09/01/2003,2: Female,16/10/2023,002,1: right,2023_Oct_16_1751,[FINAL]_fmri_multiplication,2021.2.3,59.92935000852774
block7.xlsx,,,,,,,,,,,,,,0,2,2,2,,,,,9,0,9,0,,,,,,,,,,,,,,,,,,,,,,,,,,,,,,,,,,,,,,931.8172977019995,None,931.8172977019995,None,,,,,,,,,sub-26,09/01/2003,2: Female,16/10/2023,002,1: right,2023_Oct_16_1751,[FINAL]_fmri_multiplication,2021.2.3,59.92935000852774
block7.xlsx,,,,,,,,,,,,,,0,2,2,2,,,,,10,0,10,0,,,,,,,,,,,,,,,,,,,,,,,,,,,,,,,,,,,,,,932.8169821619995,None,932.8169821619995,None,,,,,,,,,sub-26,09/01/2003,2: Female,16/10/2023,002,1: right,2023_Oct_16_1751,[FINAL]_fmri_multiplication,2021.2.3,59.92935000852774
block7.xlsx,,,,,,,,,,,,,,0,2,2,2,,,,,11,0,11,0,,,,,,,,,,,,,,,,,,,,,,,,,,,,,,,,,,,,,,933.8149382239999,None,933.8149382239999,None,,,,,,,,,sub-26,09/01/2003,2: Female,16/10/2023,002,1: right,2023_Oct_16_1751,[FINAL]_fmri_multiplication,2021.2.3,59.92935000852774
block7.xlsx,,,,,,,,,,,,,,0,2,2,2,,,,,12,0,12,0,,,,,,,,,,,,,,,,,,,,,,,,,,,,,,,,,,,,,,934.8166245479997,None,934.8166245479997,None,,,,,,,,,sub-26,09/01/2003,2: Female,16/10/2023,002,1: right,2023_Oct_16_1751,[FINAL]_fmri_multiplication,2021.2.3,59.92935000852774
block7.xlsx,,,,,,,,,,,,,,0,2,2,2,,,,,13,0,13,0,,,,,,,,,,,,,,,,,,,,,,,,,,,,,,,,,,,,,,935.8161707660001,None,935.8161707660001,None,,,,,,,,,sub-26,09/01/2003,2: Female,16/10/2023,002,1: right,2023_Oct_16_1751,[FINAL]_fmri_multiplication,2021.2.3,59.92935000852774
block7.xlsx,,,,,,,,,,,,,,0,2,2,2,,,,,14,0,14,0,,,,,,,,,,,,,,,,,,,,,,,,,,,,,,,,,,,,,,936.8163005289998,None,936.8163005289998,None,,,,,,,,,sub-26,09/01/2003,2: Female,16/10/2023,002,1: right,2023_Oct_16_1751,[FINAL]_fmri_multiplication,2021.2.3,59.92935000852774
block7.xlsx,,,,,,,,,,,,,,0,2,2,2,,,,,15,0,15,0,,,,,,,,,,,,,,,,,,,,,,,,,,,,,,,,,,,,,,937.8157348559998,None,937.8157348559998,None,,,,,,,,,sub-26,09/01/2003,2: Female,16/10/2023,002,1: right,2023_Oct_16_1751,[FINAL]_fmri_multiplication,2021.2.3,59.92935000852774
block7.xlsx,,,,,,,,,,,,,,0,2,2,2,,,,,16,0,16,0,,,,,,,,,,,,,,,,,,,,,,,,,,,,,,,,,,,,,,938.8154507569998,None,938.8154507569998,None,,,,,,,,,sub-26,09/01/2003,2: Female,16/10/2023,002,1: right,2023_Oct_16_1751,[FINAL]_fmri_multiplication,2021.2.3,59.92935000852774
block7.xlsx,,,,,,,,,,,,,,0,2,2,2,,,,,17,0,17,0,,,,,,,,,,,,,,,,,,,,,,,,,,,,,,,,,,,,,,939.8172557389998,None,939.8172557389998,None,,,,,,,,,sub-26,09/01/2003,2: Female,16/10/2023,002,1: right,2023_Oct_16_1751,[FINAL]_fmri_multiplication,2021.2.3,59.92935000852774
block7.xlsx,,,,,,,,,,,,,,0,2,2,2,,,,,18,0,18,0,,,,,,,,,,,,,,,,,,,,,,,,,,,,,,,,,,,,,,940.8164987029995,None,940.8164987029995,None,,,,,,,,,sub-26,09/01/2003,2: Female,16/10/2023,002,1: right,2023_Oct_16_1751,[FINAL]_fmri_multiplication,2021.2.3,59.92935000852774
block7.xlsx,,,,,,,,,,,,,,0,2,2,2,,,,,19,0,19,0,,,,,,,,,,,,,,,,,,,,,,,,,,,,,,,,,,,,,,941.8163162229994,None,941.8163162229994,None,,,,,,,,,sub-26,09/01/2003,2: Female,16/10/2023,002,1: right,2023_Oct_16_1751,[FINAL]_fmri_multiplication,2021.2.3,59.92935000852774
block7.xlsx,,,,,,,,,,,,,,0,2,2,2,,,,,20,0,20,0,,,,,,,,,,,,,,,,,,,,,,,,,,,,,,,,,,,,,,942.817508,None,942.817508,None,,,,,,,,,sub-26,09/01/2003,2: Female,16/10/2023,002,1: right,2023_Oct_16_1751,[FINAL]_fmri_multiplication,2021.2.3,59.92935000852774
block7.xlsx,,,,,,,,,,,,,,0,2,2,2,,,,,21,0,21,0,,,,,,,,,,,,,,,,,,,,,,,,,,,,,,,,,,,,,,943.8151914,None,943.8151914,None,,,,,,,,,sub-26,09/01/2003,2: Female,16/10/2023,002,1: right,2023_Oct_16_1751,[FINAL]_fmri_multiplication,2021.2.3,59.92935000852774
block7.xlsx,,,,,,,,,,,,,,0,2,2,2,,,,,22,0,22,0,,,,,,,,,,,,,,,,,,,,,,,,,,,,,,,,,,,,,,944.8162152469995,None,944.8162152469995,None,,,,,,,,,sub-26,09/01/2003,2: Female,16/10/2023,002,1: right,2023_Oct_16_1751,[FINAL]_fmri_multiplication,2021.2.3,59.92935000852774
block7.xlsx,,,,,,,,,,,,,,0,2,2,2,,,,,23,0,23,0,,,,,,,,,,,,,,,,,,,,,,,,,,,,,,,,,,,,,,945.8163208669994,None,945.8163208669994,None,,,,,,,,,sub-26,09/01/2003,2: Female,16/10/2023,002,1: right,2023_Oct_16_1751,[FINAL]_fmri_multiplication,2021.2.3,59.92935000852774
block7.xlsx,,,,,,,,,,,,,,0,2,2,2,,,,,24,0,24,0,,,,,,,,,,,,,,,,,,,,,,,,,,,,,,,,,,,,,,946.8162844,None,946.8162844,None,,,,,,,,,sub-26,09/01/2003,2: Female,16/10/2023,002,1: right,2023_Oct_16_1751,[FINAL]_fmri_multiplication,2021.2.3,59.92935000852774
block7.xlsx,,,,,,,,,,,,,,0,2,2,2,,,,,25,0,25,0,,,,,,,,,,,,,,,,,,,,,,,,,,,,,,,,,,,,,,947.8163184799996,None,947.8163184799996,None,,,,,,,,,sub-26,09/01/2003,2: Female,16/10/2023,002,1: right,2023_Oct_16_1751,[FINAL]_fmri_multiplication,2021.2.3,59.92935000852774
block7.xlsx,,,,,,,,,,,,,,0,2,2,2,,,,,26,0,26,0,,,,,,,,,,,,,,,,,,,,,,,,,,,,,,,,,,,,,,948.8166547599994,None,948.8166547599994,None,,,,,,,,,sub-26,09/01/2003,2: Female,16/10/2023,002,1: right,2023_Oct_16_1751,[FINAL]_fmri_multiplication,2021.2.3,59.92935000852774
block7.xlsx,,,,,,,,,,,,,,0,2,2,2,,,,,27,0,27,0,,,,,,,,,,,,,,,,,,,,,,,,,,,,,,,,,,,,,,949.8149999749994,None,949.8149999749994,None,,,,,,,,,sub-26,09/01/2003,2: Female,16/10/2023,002,1: right,2023_Oct_16_1751,[FINAL]_fmri_multiplication,2021.2.3,59.92935000852774
block7.xlsx,,,,,,,,,,,,,,0,2,2,2,,,,,28,0,28,0,,,,,,,,,,,,,,,,,,,,,,,,,,,,,,,,,,,,,,950.8161109120001,None,950.8161109120001,None,,,,,,,,,sub-26,09/01/2003,2: Female,16/10/2023,002,1: right,2023_Oct_16_1751,[FINAL]_fmri_multiplication,2021.2.3,59.92935000852774
block7.xlsx,,,,,,,,,,,,,,0,2,2,2,,,,,29,0,29,0,,,,,,,,,,,,,,,,,,,,,,,,,,,,,,,,,,,,,,951.8154196,None,951.8154196,None,,,,,,,,,sub-26,09/01/2003,2: Female,16/10/2023,002,1: right,2023_Oct_16_1751,[FINAL]_fmri_multiplication,2021.2.3,59.92935000852774
block7.xlsx,,,,,,,,,,,,,,0,2,2,2,,,,,,,,,,,,,,,,,,,,,,,,,,,,,,,,,,,,,,,,,,,,,,,,,,,,,,,,,,sub-26,09/01/2003,2: Female,16/10/2023,002,1: right,2023_Oct_16_1751,[FINAL]_fmri_multiplication,2021.2.3,59.92935000852774
block8.xlsx,10,7.5,4.2,9 x 9,81,16,9 x 9 = 81,large-sized_low-interference,large-sized,low-interference,6,CorrectRESP,a,0,3,3,3,0,0,0,0,,,,,,,,,,,,,952.8170141,None,962.8404154109994,None,963.3166338259998,None,965.3167981449997,None,966.0666084300001,None,966.3153192689997,None,966.3153192689997,None,d,0,0.8847394240001449,966.3153192689997,None,967.2172831910002,None,967.2172831910002,None,d,0.6547550160003084,967.2172831910002,None,967.9002699749999,None,,,,,,,,,,,,,sub-26,09/01/2003,2: Female,16/10/2023,002,1: right,2023_Oct_16_1751,[FINAL]_fmri_multiplication,2021.2.3,59.92935000852774
block8.xlsx,21.7,7.5,5.5,5 x 4,20,8,4 x 5 = 20,small-sized_high-interference,small-sized,high-interference,8,CorrectRESP,a,0,3,3,3,0,1,1,1,,,,,,,,,,,,,,,972.1004682100001,None,972.5994480869995,None,974.5997188470001,None,975.3499419519994,None,975.5995801979998,None,975.5995801979998,None,d,0,0.5124414780002553,975.5995801979998,None,976.1326847700002,None,976.1326847700002,None,d,0.6913646020002489,976.1326847700002,None,976.8494989800001,None,,,,,,,,,,,,,sub-26,09/01/2003,2: Female,16/10/2023,002,1: right,2023_Oct_16_1751,[FINAL]_fmri_multiplication,2021.2.3,59.92935000852774
block8.xlsx,34.7,7.5,13.5,9 x 4,32,20,4 x 9 = 32,large-sized_high-interference,large-sized,high-interference,9,IncorrectRESP,d,0,3,3,3,0,2,2,2,,,,,,,,,,,,,,,982.3495770089994,None,982.8484817909994,None,984.8494065839996,None,985.5999205,None,985.8483776,None,985.8483776,None,a,0,0.7435100230004537,985.8483776,None,986.6153013519997,None,986.6153013519997,None,d,0.2487351990002935,986.6153013519997,None,986.8830393329999,None,,,,,,,,,,,,,sub-26,09/01/2003,2: Female,16/10/2023,002,1: right,2023_Oct_16_1751,[FINAL]_fmri_multiplication,2021.2.3,59.92935000852774
block8.xlsx,55.7,7.5,3.1,4 x 6,24,10,6 x 4 = 24,small-sized_high-interference,small-sized,high-interference,12,CorrectRESP,a,0,3,3,3,0,3,3,3,,,,,,,,,,,,,,,1000.3796536059999,None,1000.8780387259994,None,1002.883475,None,1003.6333941909998,None,1003.8828014279998,None,1003.8828014279998,None,d,0,0.6451827860000776,1003.8828014279998,None,1004.5496057579994,None,1004.5496057579994,None,d,0.4104316570001174,1004.5496057579994,None,1004.982789,None,,,,,,,,,,,,,sub-26,09/01/2003,2: Female,16/10/2023,002,1: right,2023_Oct_16_1751,[FINAL]_fmri_multiplication,2021.2.3,59.92935000852774
block8.xlsx,66.3,7.5,7.7,2 x 6,10,6,6 x 2 = 10,small-sized_low-interference,small-sized,low-interference,3,IncorrectRESP,d,0,3,3,3,0,4,4,4,,,,,,,,,,,,,,,1008.0835476450002,None,1008.5828272849994,None,1010.5834622169996,None,1011.3336743689997,None,1011.5829719140002,None,1011.5829719140002,None,a,0,0.7208819300003597,1011.5829719140002,None,1012.3330919109994,None,1012.3330919109994,None,d,0.23485841999990953,1012.3330919109994,None,1012.5996198960001,None,,,,,,,,,,,,,sub-26,09/01/2003,2: Female,16/10/2023,002,1: right,2023_Oct_16_1751,[FINAL]_fmri_multiplication,2021.2.3,59.92935000852774
block8.xlsx,81.5,7.5,6.9,7 x 7,49,18,7 x 7 = 49,large-sized_low-interference,large-sized,low-interference,7,CorrectRESP,a,0,3,3,3,0,5,5,5,,,,,,,,,,,,,,,1020.2996265169995,None,1020.7996828380001,None,1022.7992818100001,None,1023.5497606829995,None,1023.8002596079996,None,1023.8002596079996,None,d,0,1.0237881349994495,1023.8002596079996,None,1024.8482815729994,None,1024.8482815729994,None,d,0.655687617,1024.8482815729994,None,1025.5331319979996,None,,,,,,,,,,,,,sub-26,09/01/2003,2: Female,16/10/2023,002,1: right,2023_Oct_16_1751,[FINAL]_fmri_multiplication,2021.2.3,59.92935000852774
block8.xlsx,95.9,7.5,12.3,2 x 6,12,6,6 x 2 = 12,small-sized_low-interference,small-sized,low-interference,3,CorrectRESP,a,0,3,3,3,0,6,6,6,,,,,,,,,,,,,,,1032.4303454259998,None,1032.9252749890002,None,1034.9336432189994,None,1035.6835411820002,None,1035.9324387319994,None,1035.9324387319994,None,d,0,0.4275031189999936,1035.9324387319994,None,1036.3831566259996,None,1036.3831566259996,None,d,0.32880929299972195,1036.3831566259996,None,1036.7325767390003,None,,,,,,,,,,,,,sub-26,09/01/2003,2: Female,16/10/2023,002,1: right,2023_Oct_16_1751,[FINAL]_fmri_multiplication,2021.2.3,59.92935000852774
block8.xlsx,115.7,7.5,2.7,7 x 8,63,22,8 x 7 = 63,large-sized_high-interference,large-sized,high-interference,9,IncorrectRESP,d,0,3,3,3,0,7,7,7,,,,,,,,,,,,,,,1049.033106,None,1049.531484,None,1051.5332108269995,None,1052.2831436309998,None,1052.53322,None,1052.53322,None,a,0,0.7388036920001468,1052.53322,None,1053.2997071569998,None,1053.2997071569998,None,d,0.26824578,1053.2997071569998,None,1053.5996216949998,None,,,,,,,,,,,,,sub-26,09/01/2003,2: Female,16/10/2023,002,1: right,2023_Oct_16_1751,[FINAL]_fmri_multiplication,2021.2.3,59.92935000852774
block8.xlsx,125.9,7.5,7.8,9 x 2,16,2,2 x 9 = 16,small-sized_low-interference,small-sized,low-interference,7,IncorrectRESP,d,0,3,3,3,0,8,8,8,,,,,,,,,,,,,,,1056.2993317519995,None,1056.799791,None,1058.7996548439996,None,1059.5497692170002,None,1059.7991657020002,None,1059.7991657020002,None,a,0,0.8088874150007541,1059.7991657020002,None,1060.632676,None,1060.632676,None,d,0.2872223379999923,1060.632676,None,1060.9493857839998,None,,,,,,,,,,,,,sub-26,09/01/2003,2: Female,16/10/2023,002,1: right,2023_Oct_16_1751,[FINAL]_fmri_multiplication,2021.2.3,59.92935000852774
block8.xlsx,141.2,7.5,2.9,8 x 3,24,12,3 x 8 = 24,small-sized_high-interference,small-sized,high-interference,13,CorrectRESP,a,0,3,3,3,0,9,9,9,,,,,,,,,,,,,,,1068.74749,None,1069.25237,None,1071.266359,None,1072.0168499029996,None,1072.2664106729999,None,1072.2664106729999,None,d,0,1.0775585149995095,1072.2664106729999,None,1073.366377,None,1073.366377,None,a,0.5455734289998873,1073.366377,None,1073.9329318009995,None,,,,,,,,,,,,,sub-26,09/01/2003,2: Female,16/10/2023,002,1: right,2023_Oct_16_1751,[FINAL]_fmri_multiplication,2021.2.3,59.92935000852774
block8.xlsx,151.6,7.5,2,4 x 8,32,24,8 x 4 = 32,large-sized_high-interference,large-sized,high-interference,25,CorrectRESP,a,0,3,3,3,0,10,10,10,,,,,,,,,,,,,,,1076.8331663479994,None,1077.3325433250002,None,1079.3331715260001,None,1080.083084,None,1080.3328434019995,None,1080.3328434019995,None,d,0,0.8350656120001076,1080.3328434019995,None,1081.1996488349996,None,1081.1996488349996,None,d,0.968265079,1081.1996488349996,None,1082.1995654419998,None,,,,,,,,,,,,,sub-26,09/01/2003,2: Female,16/10/2023,002,1: right,2023_Oct_16_1751,[FINAL]_fmri_multiplication,2021.2.3,59.92935000852774
block8.xlsx,161.1,7.5,13.1,9 x 9,72,16,9 x 9 = 72,large-sized_low-interference,large-sized,low-interference,6,IncorrectRESP,d,0,3,3,3,0,11,11,11,,,,,,,,,,,,,,,1084.199556,None,1084.6991188599995,None,1086.6997253499994,None,1087.449855,None,1087.6990036769994,None,1087.6990036769994,None,a,0,0.72504168,1087.6990036769994,None,1088.4492171769998,None,1088.4492171769998,None,a,1.0148223480000524,1088.4492171769998,None,1089.4826528539998,None,,,,,,,,,,,,,sub-26,09/01/2003,2: Female,16/10/2023,002,1: right,2023_Oct_16_1751,[FINAL]_fmri_multiplication,2021.2.3,59.92935000852774
block8.xlsx,181.7,7.5,2.4,5 x 4,16,8,4 x 5 = 16,small-sized_high-interference,small-sized,high-interference,8,IncorrectRESP,d,0,3,3,3,0,12,12,12,,,,,,,,,,,,,,,1102.5835118630002,None,1103.0833930379995,None,1105.0835717339996,None,1105.8335113799994,None,1106.0829591000002,None,1106.0829591000002,None,a,0,0.845020098,1106.0829591000002,None,1106.949716,None,1106.949716,None,d,0.3383283540006232,1106.949716,None,1107.3169281379996,None,,,,,,,,,,,,,sub-26,09/01/2003,2: Female,16/10/2023,002,1: right,2023_Oct_16_1751,[FINAL]_fmri_multiplication,2021.2.3,59.92935000852774
block8.xlsx,191.6,7.5,5.7,7 x 7,56,18,7 x 7 = 56,large-sized_low-interference,large-sized,low-interference,7,IncorrectRESP,d,0,3,3,3,0,13,13,13,,,,,,,,,,,,,,,1109.7168331949997,None,1110.2159631139994,None,1112.2166339039995,None,1112.9668344350002,None,1113.2158136930002,None,1113.2158136930002,None,d,1,1.128217677000066,1113.2158136930002,None,1114.3659652349997,None,1114.3659652349997,None,a,1.785966890999589,1114.3659652349997,None,1116.1828119249994,None,,,,,,,,,,,,,sub-26,09/01/2003,2: Female,16/10/2023,002,1: right,2023_Oct_16_1751,[FINAL]_fmri_multiplication,2021.2.3,59.92935000852774
block8.xlsx,204.8,7.5,2.2,9 x 2,18,2,2 x 9 = 18,small-sized_low-interference,small-sized,low-interference,7,CorrectRESP,a,0,3,3,3,0,14,14,14,,,,,,,,,,,,,,,1121.8826776589995,None,1122.3830782139994,None,1124.3831112239995,None,1125.1331698739996,None,1125.382795,None,1125.382795,None,d,0,1.0891945209996265,1125.382795,None,1126.499591,None,1126.499591,None,d,0.7244482559999597,1126.499591,None,1127.249061,None,,,,,,,,,,,,,sub-26,09/01/2003,2: Female,16/10/2023,002,1: right,2023_Oct_16_1751,[FINAL]_fmri_multiplication,2021.2.3,59.92935000852774
block8.xlsx,214.5,7.5,5.2,8 x 3,21,12,3 x 8 = 21,small-sized_high-interference,small-sized,high-interference,13,IncorrectRESP,d,0,3,3,3,0,15,15,15,,,,,,,,,,,,,,,1129.4496751999995,None,1129.9481826479996,None,1131.9497694499996,None,1132.6986632070002,None,1132.9485667179997,None,1132.9485667179997,None,a,0,1.0673973899993143,1132.9485667179997,None,1134.0328603649996,None,1134.0328603649996,None,d,0.5350731369999266,1134.0328603649996,None,1134.5989707729996,None,,,,,,,,,,,,,sub-26,09/01/2003,2: Female,16/10/2023,002,1: right,2023_Oct_16_1751,[FINAL]_fmri_multiplication,2021.2.3,59.92935000852774
block8.xlsx,227.2,7.5,3.8,4 x 4,20,4,4 x 4 = 20,small-sized_low-interference,small-sized,low-interference,5,IncorrectRESP,d,0,3,3,3,0,16,16,16,,,,,,,,,,,,,,,1139.7972061290002,None,1140.2997484279995,None,1142.299628,None,1143.0501155639995,None,1143.2987625730002,None,1143.2987625730002,None,a,0,0.6531722790005006,1143.2987625730002,None,1143.981979,None,1143.981979,None,d,0.4019381139996767,1143.981979,None,1144.4168903989994,None,,,,,,,,,,,,,sub-26,09/01/2003,2: Female,16/10/2023,002,1: right,2023_Oct_16_1751,[FINAL]_fmri_multiplication,2021.2.3,59.92935000852774
block8.xlsx,238.5,7.5,2,4 x 6,28,10,6 x 4 = 28,small-sized_high-interference,small-sized,high-interference,12,IncorrectRESP,d,0,3,3,3,0,17,17,17,,,,,,,,,,,,,,,1148.216574,None,1148.7162035639994,None,1150.716563,None,1151.4665964779997,None,1151.716186,None,1151.716186,None,a,0,0.8677188900001056,1151.716186,None,1152.6157725499997,None,1152.6157725499997,None,d,0.38418061299944384,1152.6157725499997,None,1153.0330696209994,None,,,,,,,,,,,,,sub-26,09/01/2003,2: Female,16/10/2023,002,1: right,2023_Oct_16_1751,[FINAL]_fmri_multiplication,2021.2.3,59.92935000852774
block8.xlsx,248,7.5,4,6 x 5,30,14,5 x 6 = 30,large-sized_low-interference,large-sized,low-interference,6,CorrectRESP,a,0,3,3,3,0,18,18,18,,,,,,,,,,,,,,,1155.0332217650002,None,1155.5328841310002,None,1157.533107,None,1158.283025,None,1158.5316722549996,None,1158.5316722549996,None,d,0,0.6682440699996732,1158.5316722549996,None,1159.233083,None,1159.233083,None,d,0.7028628200005187,1159.233083,None,1159.966498,None,,,,,,,,,,,,,sub-26,09/01/2003,2: Female,16/10/2023,002,1: right,2023_Oct_16_1751,[FINAL]_fmri_multiplication,2021.2.3,59.92935000852774
block8.xlsx,259.5,7.5,11.3,7 x 8,56,22,8 x 7 = 56,large-sized_high-interference,large-sized,high-interference,9,CorrectRESP,a,0,3,3,3,0,19,19,19,,,,,,,,,,,,,,,1163.9659672799999,None,1164.4651361919996,None,1166.4660067119994,None,1167.2165584670001,None,1167.4659481279996,None,1167.4659481279996,None,d,0,0.49404208500072855,1167.4659481279996,None,1167.9827754119997,None,1167.9827754119997,None,d,0.3531647019999582,1167.9827754119997,None,1168.366597,None,,,,,,,,,,,,,sub-26,09/01/2003,2: Female,16/10/2023,002,1: right,2023_Oct_16_1751,[FINAL]_fmri_multiplication,2021.2.3,59.92935000852774
block8.xlsx,278.3,7.5,10.9,6 x 5,36,14,5 x 6 = 36,large-sized_low-interference,large-sized,low-interference,6,IncorrectRESP,d,0,3,3,3,0,20,20,20,,,,,,,,,,,,,,,1179.6668971089994,None,1180.167903,None,1182.1834307119998,None,1182.9333086079996,None,1183.184517,None,1183.184517,None,a,0,0.8875228420001804,1183.184517,None,1184.0996496749995,None,1184.0996496749995,None,d,0.3323611109999547,1184.0996496749995,None,1184.44925,None,,,,,,,,,,,,,sub-26,09/01/2003,2: Female,16/10/2023,002,1: right,2023_Oct_16_1751,[FINAL]_fmri_multiplication,2021.2.3,59.92935000852774
block8.xlsx,296.7,7.5,3.5,9 x 4,36,20,4 x 9 = 36,large-sized_high-interference,large-sized,high-interference,9,CorrectRESP,a,0,3,3,3,0,21,21,21,,,,,,,,,,,,,,,1195.3497998479997,None,1195.8492171540001,None,1197.8492846210002,None,1198.5998475589995,None,1198.8484896969994,None,1198.8484896969994,None,d,0,0.5755143939995833,1198.8484896969994,None,1199.449144,None,1199.449144,None,d,0.3829657589994895,1199.449144,None,1199.8492608770002,None,,,,,,,,,,,,,sub-26,09/01/2003,2: Female,16/10/2023,002,1: right,2023_Oct_16_1751,[FINAL]_fmri_multiplication,2021.2.3,59.92935000852774
block8.xlsx,307.7,7.5,2.9,4 x 4,16,4,4 x 4 = 16,small-sized_low-interference,small-sized,low-interference,5,CorrectRESP,a,0,3,3,3,0,22,22,22,,,,,,,,,,,,,,,1203.3497924269996,None,1203.8485682609999,None,1205.8491614599998,None,1206.6000016930002,None,1206.848926,None,1206.848926,None,d,0,0.6390327700000853,1206.848926,None,1207.5176025109995,None,1207.5176025109995,None,a,0.3864044769998145,1207.5176025109995,None,1207.933165,None,,,,,,,,,,,,,sub-26,09/01/2003,2: Female,16/10/2023,002,1: right,2023_Oct_16_1751,[FINAL]_fmri_multiplication,2021.2.3,59.92935000852774
block8.xlsx,318.1,7.5,9.4,4 x 8,28,24,8 x 4 = 28,large-sized_high-interference,large-sized,high-interference,25,IncorrectRESP,d,0,3,3,3,0,23,23,23,,,,,,,,,,,,,,,1210.8330801000002,None,1211.3341688199998,None,1213.3335087599999,None,1214.0829121959996,None,1214.333438,None,1214.333438,None,a,0,1.0664889780000522,1214.333438,None,1215.4164831919998,None,1215.4164831919998,None,d,0.5915514279995477,1215.4164831919998,None,1216.0331279319998,None,,,,,,,,,,,,,sub-26,09/01/2003,2: Female,16/10/2023,002,1: right,2023_Oct_16_1751,[FINAL]_fmri_multiplication,2021.2.3,59.92935000852774
block8.xlsx,,,,,,,,,,,,,,0,3,3,3,,,,,0,0,0,0,,,,,,,,,,,,,,,,,,,,,,,,,,,,,,,,,,,,,,1225.432137,None,1225.432137,None,,,,,,,,,sub-26,09/01/2003,2: Female,16/10/2023,002,1: right,2023_Oct_16_1751,[FINAL]_fmri_multiplication,2021.2.3,59.92935000852774
block8.xlsx,,,,,,,,,,,,,,0,3,3,3,,,,,1,0,1,0,,,,,,,,,,,,,,,,,,,,,,,,,,,,,,,,,,,,,,1226.4317799639994,1226.4317799639994,1226.4317799639994,1226.4317799639994,,,,,,,,,sub-26,09/01/2003,2: Female,16/10/2023,002,1: right,2023_Oct_16_1751,[FINAL]_fmri_multiplication,2021.2.3,59.92935000852774
block8.xlsx,,,,,,,,,,,,,,0,3,3,3,,,,,2,0,2,0,,,,,,,,,,,,,,,,,,,,,,,,,,,,,,,,,,,,,,1227.4331073960002,1227.4331073960002,1227.4331073960002,1227.4331073960002,,,,,,,,,sub-26,09/01/2003,2: Female,16/10/2023,002,1: right,2023_Oct_16_1751,[FINAL]_fmri_multiplication,2021.2.3,59.92935000852774
block8.xlsx,,,,,,,,,,,,,,0,3,3,3,,,,,3,0,3,0,,,,,,,,,,,,,,,,,,,,,,,,,,,,,,,,,,,,,,1228.4329850109998,1228.4329850109998,1228.4329850109998,1228.4329850109998,,,,,,,,,sub-26,09/01/2003,2: Female,16/10/2023,002,1: right,2023_Oct_16_1751,[FINAL]_fmri_multiplication,2021.2.3,59.92935000852774
block8.xlsx,,,,,,,,,,,,,,0,3,3,3,,,,,4,0,4,0,,,,,,,,,,,,,,,,,,,,,,,,,,,,,,,,,,,,,,1229.4318437209995,1229.4318437209995,1229.4318437209995,1229.4318437209995,,,,,,,,,sub-26,09/01/2003,2: Female,16/10/2023,002,1: right,2023_Oct_16_1751,[FINAL]_fmri_multiplication,2021.2.3,59.92935000852774
block8.xlsx,,,,,,,,,,,,,,0,3,3,3,,,,,5,0,5,0,,,,,,,,,,,,,,,,,,,,,,,,,,,,,,,,,,,,,,1230.4353604939997,1230.4353604939997,1230.4353604939997,1230.4353604939997,,,,,,,,,sub-26,09/01/2003,2: Female,16/10/2023,002,1: right,2023_Oct_16_1751,[FINAL]_fmri_multiplication,2021.2.3,59.92935000852774
block8.xlsx,,,,,,,,,,,,,,0,3,3,3,,,,,6,0,6,0,,,,,,,,,,,,,,,,,,,,,,,,,,,,,,,,,,,,,,1231.4496750919998,None,1231.4496750919998,None,,,,,,,,,sub-26,09/01/2003,2: Female,16/10/2023,002,1: right,2023_Oct_16_1751,[FINAL]_fmri_multiplication,2021.2.3,59.92935000852774
block8.xlsx,,,,,,,,,,,,,,0,3,3,3,,,,,7,0,7,0,,,,,,,,,,,,,,,,,,,,,,,,,,,,,,,,,,,,,,1232.4494763989996,None,1232.4494763989996,None,,,,,,,,,sub-26,09/01/2003,2: Female,16/10/2023,002,1: right,2023_Oct_16_1751,[FINAL]_fmri_multiplication,2021.2.3,59.92935000852774
block8.xlsx,,,,,,,,,,,,,,0,3,3,3,,,,,8,0,8,0,,,,,,,,,,,,,,,,,,,,,,,,,,,,,,,,,,,,,,1233.4484384460002,None,1233.4484384460002,None,,,,,,,,,sub-26,09/01/2003,2: Female,16/10/2023,002,1: right,2023_Oct_16_1751,[FINAL]_fmri_multiplication,2021.2.3,59.92935000852774
block8.xlsx,,,,,,,,,,,,,,0,3,3,3,,,,,9,0,9,0,,,,,,,,,,,,,,,,,,,,,,,,,,,,,,,,,,,,,,1234.449985,None,1234.449985,None,,,,,,,,,sub-26,09/01/2003,2: Female,16/10/2023,002,1: right,2023_Oct_16_1751,[FINAL]_fmri_multiplication,2021.2.3,59.92935000852774
block8.xlsx,,,,,,,,,,,,,,0,3,3,3,,,,,10,0,10,0,,,,,,,,,,,,,,,,,,,,,,,,,,,,,,,,,,,,,,1235.450309,None,1235.450309,None,,,,,,,,,sub-26,09/01/2003,2: Female,16/10/2023,002,1: right,2023_Oct_16_1751,[FINAL]_fmri_multiplication,2021.2.3,59.92935000852774
block8.xlsx,,,,,,,,,,,,,,0,3,3,3,,,,,11,0,11,0,,,,,,,,,,,,,,,,,,,,,,,,,,,,,,,,,,,,,,1236.4499168000002,None,1236.4499168000002,None,,,,,,,,,sub-26,09/01/2003,2: Female,16/10/2023,002,1: right,2023_Oct_16_1751,[FINAL]_fmri_multiplication,2021.2.3,59.92935000852774
block8.xlsx,,,,,,,,,,,,,,0,3,3,3,,,,,12,0,12,0,,,,,,,,,,,,,,,,,,,,,,,,,,,,,,,,,,,,,,1237.4522177560002,None,1237.4522177560002,None,,,,,,,,,sub-26,09/01/2003,2: Female,16/10/2023,002,1: right,2023_Oct_16_1751,[FINAL]_fmri_multiplication,2021.2.3,59.92935000852774
block8.xlsx,,,,,,,,,,,,,,0,3,3,3,,,,,13,0,13,0,,,,,,,,,,,,,,,,,,,,,,,,,,,,,,,,,,,,,,1238.4498990829998,None,1238.4498990829998,None,,,,,,,,,sub-26,09/01/2003,2: Female,16/10/2023,002,1: right,2023_Oct_16_1751,[FINAL]_fmri_multiplication,2021.2.3,59.92935000852774
block8.xlsx,,,,,,,,,,,,,,0,3,3,3,,,,,14,0,14,0,,,,,,,,,,,,,,,,,,,,,,,,,,,,,,,,,,,,,,1239.448428,None,1239.448428,None,,,,,,,,,sub-26,09/01/2003,2: Female,16/10/2023,002,1: right,2023_Oct_16_1751,[FINAL]_fmri_multiplication,2021.2.3,59.92935000852774
block8.xlsx,,,,,,,,,,,,,,0,3,3,3,,,,,15,0,15,0,,,,,,,,,,,,,,,,,,,,,,,,,,,,,,,,,,,,,,1240.4523887449996,None,1240.4523887449996,None,,,,,,,,,sub-26,09/01/2003,2: Female,16/10/2023,002,1: right,2023_Oct_16_1751,[FINAL]_fmri_multiplication,2021.2.3,59.92935000852774
block8.xlsx,,,,,,,,,,,,,,0,3,3,3,,,,,16,0,16,0,,,,,,,,,,,,,,,,,,,,,,,,,,,,,,,,,,,,,,1241.4497441819994,None,1241.4497441819994,None,,,,,,,,,sub-26,09/01/2003,2: Female,16/10/2023,002,1: right,2023_Oct_16_1751,[FINAL]_fmri_multiplication,2021.2.3,59.92935000852774
block8.xlsx,,,,,,,,,,,,,,0,3,3,3,,,,,17,0,17,0,,,,,,,,,,,,,,,,,,,,,,,,,,,,,,,,,,,,,,1242.450679,None,1242.450679,None,,,,,,,,,sub-26,09/01/2003,2: Female,16/10/2023,002,1: right,2023_Oct_16_1751,[FINAL]_fmri_multiplication,2021.2.3,59.92935000852774
block8.xlsx,,,,,,,,,,,,,,0,3,3,3,,,,,18,0,18,0,,,,,,,,,,,,,,,,,,,,,,,,,,,,,,,,,,,,,,1243.4502605979997,None,1243.4502605979997,None,,,,,,,,,sub-26,09/01/2003,2: Female,16/10/2023,002,1: right,2023_Oct_16_1751,[FINAL]_fmri_multiplication,2021.2.3,59.92935000852774
block8.xlsx,,,,,,,,,,,,,,0,3,3,3,,,,,19,0,19,0,,,,,,,,,,,,,,,,,,,,,,,,,,,,,,,,,,,,,,1244.4509470349994,None,1244.4509470349994,None,,,,,,,,,sub-26,09/01/2003,2: Female,16/10/2023,002,1: right,2023_Oct_16_1751,[FINAL]_fmri_multiplication,2021.2.3,59.92935000852774
block8.xlsx,,,,,,,,,,,,,,0,3,3,3,,,,,20,0,20,0,,,,,,,,,,,,,,,,,,,,,,,,,,,,,,,,,,,,,,1245.4490517069999,None,1245.4490517069999,None,,,,,,,,,sub-26,09/01/2003,2: Female,16/10/2023,002,1: right,2023_Oct_16_1751,[FINAL]_fmri_multiplication,2021.2.3,59.92935000852774
block8.xlsx,,,,,,,,,,,,,,0,3,3,3,,,,,21,0,21,0,,,,,,,,,,,,,,,,,,,,,,,,,,,,,,,,,,,,,,1246.4505562449995,None,1246.4505562449995,None,,,,,,,,,sub-26,09/01/2003,2: Female,16/10/2023,002,1: right,2023_Oct_16_1751,[FINAL]_fmri_multiplication,2021.2.3,59.92935000852774
block8.xlsx,,,,,,,,,,,,,,0,3,3,3,,,,,22,0,22,0,,,,,,,,,,,,,,,,,,,,,,,,,,,,,,,,,,,,,,1247.4505200149997,None,1247.4505200149997,None,,,,,,,,,sub-26,09/01/2003,2: Female,16/10/2023,002,1: right,2023_Oct_16_1751,[FINAL]_fmri_multiplication,2021.2.3,59.92935000852774
block8.xlsx,,,,,,,,,,,,,,0,3,3,3,,,,,23,0,23,0,,,,,,,,,,,,,,,,,,,,,,,,,,,,,,,,,,,,,,1248.4498749929999,None,1248.4498749929999,None,,,,,,,,,sub-26,09/01/2003,2: Female,16/10/2023,002,1: right,2023_Oct_16_1751,[FINAL]_fmri_multiplication,2021.2.3,59.92935000852774
block8.xlsx,,,,,,,,,,,,,,0,3,3,3,,,,,24,0,24,0,,,,,,,,,,,,,,,,,,,,,,,,,,,,,,,,,,,,,,1249.450187,None,1249.450187,None,,,,,,,,,sub-26,09/01/2003,2: Female,16/10/2023,002,1: right,2023_Oct_16_1751,[FINAL]_fmri_multiplication,2021.2.3,59.92935000852774
block8.xlsx,,,,,,,,,,,,,,0,3,3,3,,,,,25,0,25,0,,,,,,,,,,,,,,,,,,,,,,,,,,,,,,,,,,,,,,1250.4497659090002,None,1250.4497659090002,None,,,,,,,,,sub-26,09/01/2003,2: Female,16/10/2023,002,1: right,2023_Oct_16_1751,[FINAL]_fmri_multiplication,2021.2.3,59.92935000852774
block8.xlsx,,,,,,,,,,,,,,0,3,3,3,,,,,26,0,26,0,,,,,,,,,,,,,,,,,,,,,,,,,,,,,,,,,,,,,,1251.4499115990002,None,1251.4499115990002,None,,,,,,,,,sub-26,09/01/2003,2: Female,16/10/2023,002,1: right,2023_Oct_16_1751,[FINAL]_fmri_multiplication,2021.2.3,59.92935000852774
block8.xlsx,,,,,,,,,,,,,,0,3,3,3,,,,,27,0,27,0,,,,,,,,,,,,,,,,,,,,,,,,,,,,,,,,,,,,,,1252.4497392449994,None,1252.4497392449994,None,,,,,,,,,sub-26,09/01/2003,2: Female,16/10/2023,002,1: right,2023_Oct_16_1751,[FINAL]_fmri_multiplication,2021.2.3,59.92935000852774
block8.xlsx,,,,,,,,,,,,,,0,3,3,3,,,,,28,0,28,0,,,,,,,,,,,,,,,,,,,,,,,,,,,,,,,,,,,,,,1253.4496625069996,None,1253.4496625069996,None,,,,,,,,,sub-26,09/01/2003,2: Female,16/10/2023,002,1: right,2023_Oct_16_1751,[FINAL]_fmri_multiplication,2021.2.3,59.92935000852774
block8.xlsx,,,,,,,,,,,,,,0,3,3,3,,,,,29,0,29,0,,,,,,,,,,,,,,,,,,,,,,,,,,,,,,,,,,,,,,1254.4493863179996,None,1254.4493863179996,None,,,,,,,,,sub-26,09/01/2003,2: Female,16/10/2023,002,1: right,2023_Oct_16_1751,[FINAL]_fmri_multiplication,2021.2.3,59.92935000852774
block8.xlsx,,,,,,,,,,,,,,0,3,3,3,,,,,,,,,,,,,,,,,,,,,,,,,,,,,,,,,,,,,,,,,,,,,,,,,,,,,,,,,,sub-26,09/01/2003,2: Female,16/10/2023,002,1: right,2023_Oct_16_1751,[FINAL]_fmri_multiplication,2021.2.3,59.92935000852774
,,,,,,,,,,,,,,,,,,,,,,,,,,,,,,,,,,,,,,,,,,,,,,,,,,,,,,,,,,,,,,,,,,,1255.4498747090001,1257.4497996379996,1257.4329165059999,None,y,203.16321474600045,1257.4329165059999,None,sub-26,09/01/2003,2: Female,16/10/2023,002,1: right,2023_Oct_16_1751,[FINAL]_fmri_multiplication,2021.2.3,59.92935000852774