blocks_file,start,dur,rest,mult_problemB,mult_options,stim_trial,mult_stim,type,ProblemSize,InterferenceLH,InterferenceLevel,mult_type,corrRESP,blocks_set.thisRepN,blocks_set.thisTrialN,blocks_set.thisN,blocks_set.thisIndex,TRIALS.thisRepN,TRIALS.thisTrialN,TRIALS.thisN,TRIALS.thisIndex,timer_loop.thisRepN,timer_loop.thisTrialN,timer_loop.thisN,timer_loop.thisIndex,WAIT_TEXT.started,WAIT_TEXT.stopped,scan_start_trigger.keys,scan_start_trigger.rt,scan_start_trigger.started,scan_start_trigger.stopped,MAIN_SCREEN.started,MAIN_SCREEN.stopped,Block_Text.started,Block_Text.stopped,asterisk500ms.started,asterisk500ms.stopped,mult_question_text.started,mult_question_text.stopped,equal_text.started,equal_text.stopped,blank250_text.started,blank250_text.stopped,Mult_OPTION.started,Mult_OPTION.stopped,Mult_YN.started,Mult_YN.stopped,Mult_Resp.keys,Mult_Resp.corr,Mult_Resp.rt,Mult_Resp.started,Mult_Resp.stopped,Strategy_Q.started,Strategy_Q.stopped,Strategy_Option.started,Strategy_Option.stopped,Strategy_RESP.keys,Strategy_RESP.rt,Strategy_RESP.started,Strategy_RESP.stopped,jitters.started,jitters.stopped,resting_text.started,resting_text.stopped,countdown_timer.started,countdown_timer.stopped,participant,Date of birth (DD/MM/YEAR),gender,Testing Date (DD/MM/YEAR),session,handedness,date,expName,psychopyVersion,frameRate
,,,,,,,,,,,,,,,,,,,,,,,,,,39.14870621099999,None,s,51.556049478000205,39.14870621099999,None,,,,,,,,,,,,,,,,,,,,,,,,,,,,,,,,,,,,sub-03,05/02/2001,1: Male,15/07/2023,001,1: right,2023_Jul_15_1045,[FINAL]_fmri_multiplication,2021.2.3,59.965441436222996
block1.xlsx,10,7.5,15.3,6 x 6,36,13,6 x 6 = 36,large-sized_low-interference,large-sized,low-interference,4,CorrectRESP,a,0,0,0,0,0,0,0,0,,,,,,,,,,,90.72853180099992,None,95.76255670299997,None,105.74973213199974,None,106.24471911699948,None,108.24299115099984,None,108.99293648999992,None,109.2403714510001,None,109.2403714510001,None,a,0,1.0053473779998967,109.2403714510001,None,110.27666940699964,None,110.27666940699964,None,d,0.9690526790000149,110.27666940699964,None,111.27657481499955,None,,,,,sub-03,05/02/2001,1: Male,15/07/2023,001,1: right,2023_Jul_15_1045,[FINAL]_fmri_multiplication,2021.2.3,59.965441436222996
block1.xlsx,32.8,7.5,2.5,2 x 9,18,2,2 x 9 = 18,small-sized_low-interference,small-sized,low-interference,7,CorrectRESP,a,0,0,0,0,0,1,1,1,,,,,,,,,,,,,,,126.57637662799971,None,127.07899431499936,None,129.09267682099926,None,129.8430495069997,None,130.09538954399977,None,130.09538954399977,None,a,0,0.7184315430004062,130.09538954399977,None,130.84334863299955,None,130.84334863299955,None,d,0.5384221200001775,130.84334863299955,None,131.40991035699972,None,,,,,sub-03,05/02/2001,1: Male,15/07/2023,001,1: right,2023_Jul_15_1045,[FINAL]_fmri_multiplication,2021.2.3,59.965441436222996
block1.xlsx,42.8,7.5,3.8,8 x 4,28,24,8 x 4 = 28,large-sized_high-interference,large-sized,high-interference,25,IncorrectRESP,d,0,0,0,0,0,2,2,2,,,,,,,,,,,,,,,133.9099409069995,None,134.4120116819995,None,136.42617721199986,None,137.1767156269998,None,137.42659036799978,None,137.42659036799978,None,d,0,0.7871363109998128,137.42659036799978,None,138.24189252499946,None,138.24189252499946,None,d,0.49991356099963014,138.24189252499946,None,138.7595730289995,None,,,,,sub-03,05/02/2001,1: Male,15/07/2023,001,1: right,2023_Jul_15_1045,[FINAL]_fmri_multiplication,2021.2.3,59.965441436222996
block1.xlsx,54.1,7.5,5.5,7 x 2,14,1,7 x 2 = 14,small-sized_low-interference,small-sized,low-interference,4,CorrectRESP,a,0,0,0,0,0,3,3,3,,,,,,,,,,,,,,,142.55917818499984,None,143.0599662,None,145.0597013,None,145.80993763099923,None,146.05841849099943,None,146.05841849099943,None,a,0,0.6993896880003376,146.05841849099943,None,146.77578212299977,None,146.77578212299977,None,d,0.2539351010000246,146.77578212299977,None,147.05971138099994,None,,,,,sub-03,05/02/2001,1: Male,15/07/2023,001,1: right,2023_Jul_15_1045,[FINAL]_fmri_multiplication,2021.2.3,59.965441436222996
block1.xlsx,67.1,7.5,3,7 x 7,56,18,7 x 7 = 56,large-sized_low-interference,large-sized,low-interference,7,IncorrectRESP,d,0,0,0,0,0,4,4,4,,,,,,,,,,,,,,,152.5597332009993,None,153.0594509349994,None,155.05960269299976,None,155.80971541999952,None,156.05969205600013,None,156.05969205600013,None,d,0,0.9140554519999569,156.05969205600013,None,156.9925754400001,None,156.9925754400001,None,d,0.6451544950004973,156.9925754400001,None,157.6592055049996,None,,,,,sub-03,05/02/2001,1: Male,15/07/2023,001,1: right,2023_Jul_15_1045,[FINAL]_fmri_multiplication,2021.2.3,59.965441436222996
block1.xlsx,77.6,7.5,2.1,3 x 4,12,9,3 x 4 = 12,small-sized_high-interference,small-sized,high-interference,10,CorrectRESP,a,0,0,0,0,0,5,5,5,,,,,,,,,,,,,,,160.6596094839997,None,161.15961560100004,None,163.15941989299972,None,163.90983369599962,None,164.15975268999955,None,164.15975268999955,None,a,0,0.9661029909993886,164.15975268999955,None,165.14228117499988,None,165.14228117499988,None,d,0.44752951099962957,165.14228117499988,None,165.60942493899984,None,,,,,sub-03,05/02/2001,1: Male,15/07/2023,001,1: right,2023_Jul_15_1045,[FINAL]_fmri_multiplication,2021.2.3,59.965441436222996
block1.xlsx,87.2,7.5,5,8 x 7,63,22,8 x 7 = 63,large-sized_high-interference,large-sized,high-interference,9,IncorrectRESP,d,0,0,0,0,0,6,6,6,,,,,,,,,,,,,,,167.70676206200005,None,168.20149777400002,None,170.2101943689995,None,170.96015795899984,None,171.20976801599954,None,171.20976801599954,None,d,0,0.7560206360003576,171.20976801599954,None,171.99486946899924,None,171.99486946899924,None,d,0.234841412,171.99486946899924,None,172.26010707299974,None,,,,,sub-03,05/02/2001,1: Male,15/07/2023,001,1: right,2023_Jul_15_1045,[FINAL]_fmri_multiplication,2021.2.3,59.965441436222996
block1.xlsx,99.7,7.5,3,5 x 5,25,3,5 x 5 = 25,small-sized_low-interference,small-sized,low-interference,3,CorrectRESP,a,0,0,0,0,0,7,7,7,,,,,,,,,,,,,,,177.25969015400005,None,177.75959134799996,None,179.7597747639993,None,180.5093380949993,None,180.75913878899973,None,180.75913878899973,None,a,0,0.6626091739999538,180.75913878899973,None,181.4425519079996,None,181.4425519079996,None,d,0.17921048999960476,181.4425519079996,None,181.64257783999983,None,,,,,sub-03,05/02/2001,1: Male,15/07/2023,001,1: right,2023_Jul_15_1045,[FINAL]_fmri_multiplication,2021.2.3,59.965441436222996
block1.xlsx,110.2,7.5,6.5,6 x 4,28,10,6 x 4 = 28,small-sized_high-interference,small-sized,high-interference,12,IncorrectRESP,d,0,0,0,0,0,8,8,8,,,,,,,,,,,,,,,184.64292144199953,None,185.14268427299976,None,187.14309446700008,None,187.89319738199993,None,188.14293163999992,None,188.14293163999992,None,d,0,0.9108684580005502,188.14293163999992,None,189.07588325199958,None,189.07588325199958,None,d,0.097964188,189.07588325199958,None,189.19196207099958,None,,,,,sub-03,05/02/2001,1: Male,15/07/2023,001,1: right,2023_Jul_15_1045,[FINAL]_fmri_multiplication,2021.2.3,59.965441436222996
block1.xlsx,124.2,7.5,5.7,5 x 8,40,21,5 x 8 = 40,large-sized_high-interference,large-sized,high-interference,9,CorrectRESP,a,0,0,0,0,0,9,9,9,,,,,,,,,,,,,,,195.69305848899967,None,196.19131227099933,None,198.1927159809993,None,198.94294917199932,None,199.1950994889994,None,199.1950994889994,None,a,0,0.5707226899994566,199.1950994889994,None,199.79228466899986,None,199.79228466899986,None,d,0.1815194889995837,199.79228466899986,None,199.99274102899926,None,,,,,sub-03,05/02/2001,1: Male,15/07/2023,001,1: right,2023_Jul_15_1045,[FINAL]_fmri_multiplication,2021.2.3,59.965441436222996
block1.xlsx,137.4,7.5,11.2,7 x 3,24,11,7 x 3 = 24,small-sized_high-interference,small-sized,high-interference,13,IncorrectRESP,d,0,0,0,0,0,10,10,10,,,,,,,,,,,,,,,205.69351565999932,None,206.19326793599976,None,208.19282041799943,None,208.94324035699992,None,209.19368701199983,None,209.19368701199983,None,d,0,0.6600815570000123,209.19368701199983,None,209.8745205739997,None,209.8745205739997,None,d,0.16315080700042017,209.8745205739997,None,210.0595509649993,None,,,,,sub-03,05/02/2001,1: Male,15/07/2023,001,1: right,2023_Jul_15_1045,[FINAL]_fmri_multiplication,2021.2.3,59.965441436222996
block1.xlsx,156.1,7.5,6.9,5 x 6,30,14,5 x 6 = 30,large-sized_low-interference,large-sized,low-interference,6,CorrectRESP,a,0,0,0,0,0,11,11,11,,,,,,,,,,,,,,,221.2595740779998,None,221.75793261599938,None,223.75966213599986,None,224.5096291,None,224.75820205299988,None,224.75820205299988,None,a,0,0.6795269809999809,224.75820205299988,None,225.45927344399934,None,225.45927344399934,None,d,0.15443626100022811,225.45927344399934,None,225.64302796399988,None,,,,,sub-03,05/02/2001,1: Male,15/07/2023,001,1: right,2023_Jul_15_1045,[FINAL]_fmri_multiplication,2021.2.3,59.965441436222996
block1.xlsx,170.5,7.5,2.4,6 x 2,10,6,6 x 2 = 10,small-sized_low-interference,small-sized,low-interference,3,IncorrectRESP,d,0,0,0,0,0,12,12,12,,,,,,,,,,,,,,,232.54296735499975,None,233.04271606299972,None,235.04314284499924,None,235.79312211499928,None,236.04300671300007,None,236.04300671300007,None,d,0,0.6668079849996502,236.04300671300007,None,236.7266395,None,236.7266395,None,d,0.11114455400002043,236.7266395,None,236.85999128000003,None,,,,,sub-03,05/02/2001,1: Male,15/07/2023,001,1: right,2023_Jul_15_1045,[FINAL]_fmri_multiplication,2021.2.3,59.965441436222996
block1.xlsx,180.4,7.5,4.6,4 x 9,36,20,4 x 9 = 36,large-sized_high-interference,large-sized,high-interference,9,CorrectRESP,a,0,0,0,0,0,13,13,13,,,,,,,,,,,,,,,239.26005781899948,None,239.7598576,None,241.7600480889996,None,242.51008648199968,None,242.7593101,None,242.7593101,None,a,0,0.5024344470002688,242.7593101,None,243.29223145699962,None,243.29223145699962,None,d,0.15346043400040799,243.29223145699962,None,243.47686647199953,None,,,,,sub-03,05/02/2001,1: Male,15/07/2023,001,1: right,2023_Jul_15_1045,[FINAL]_fmri_multiplication,2021.2.3,59.965441436222996
block1.xlsx,192.5,7.5,9,7 x 5,40,17,7 x 5 = 40,large-sized_low-interference,large-sized,low-interference,7,IncorrectRESP,d,0,0,0,0,0,14,14,14,,,,,,,,,,,,,,,248.07638861399937,None,248.57585086699964,None,250.5760858019994,None,251.32628021099936,None,251.57619260999945,None,251.57619260999945,None,d,0,0.6695194339999944,251.57619260999945,None,252.27610938699945,None,252.27610938699945,None,d,0.10571728300055838,252.27610938699945,None,252.4092554179997,None,,,,,sub-03,05/02/2001,1: Male,15/07/2023,001,1: right,2023_Jul_15_1045,[FINAL]_fmri_multiplication,2021.2.3,59.965441436222996
block1.xlsx,209,7.5,5.8,6 x 3,18,7,6 x 3 = 18,small-sized_high-interference,small-sized,high-interference,8,CorrectRESP,a,0,0,0,0,0,15,15,15,,,,,,,,,,,,,,,261.4096182029998,None,261.9099643,None,263.90920447499957,None,264.65969586999927,None,264.9094045699994,None,264.9094045699994,None,a,0,0.5044126309994681,264.9094045699994,None,265.4416106819999,None,265.4416106819999,None,d,0.15614503400047397,265.4416106819999,None,265.6263204070001,None,,,,,sub-03,05/02/2001,1: Male,15/07/2023,001,1: right,2023_Jul_15_1045,[FINAL]_fmri_multiplication,2021.2.3,59.965441436222996
block1.xlsx,222.3,7.5,2.9,7 x 6,48,23,7 x 6 = 48,large-sized_high-interference,large-sized,high-interference,22,IncorrectRESP,d,0,0,0,0,0,16,16,16,,,,,,,,,,,,,,,271.4264902340001,None,271.9252224519996,None,273.92621522899935,None,274.6767892359994,None,274.92648644199926,None,274.92648644199926,None,d,0,0.7672288980002122,274.92648644199926,None,275.7265211260001,None,275.7265211260001,None,d,0.13519102400005067,275.7265211260001,None,275.8935844739999,None,,,,,sub-03,05/02/2001,1: Male,15/07/2023,001,1: right,2023_Jul_15_1045,[FINAL]_fmri_multiplication,2021.2.3,59.965441436222996
block1.xlsx,232.7,7.5,6.9,9 x 5,45,15,9 x 5 = 45,large-sized_low-interference,large-sized,low-interference,6,CorrectRESP,a,0,0,0,0,0,17,17,17,,,,,,,,,,,,,,,278.7930191489995,None,279.29324636899946,None,281.2932393559995,None,282.0431902,None,282.2933825579994,None,282.2933825579994,None,a,0,0.872352114,282.2933825579994,None,283.1927086989999,None,283.1927086989999,None,d,0.17308657000012317,283.1927086989999,None,283.39288635999947,None,,,,,sub-03,05/02/2001,1: Male,15/07/2023,001,1: right,2023_Jul_15_1045,[FINAL]_fmri_multiplication,2021.2.3,59.965441436222996
block1.xlsx,247.1,7.5,2.5,4 x 4,20,4,4 x 4 = 20,small-sized_low-interference,small-sized,low-interference,5,IncorrectRESP,d,0,0,0,0,0,18,18,18,,,,,,,,,,,,,,,290.29295722999996,None,290.7925605,None,292.79292110200004,None,293.5428048,None,293.7931238279998,None,293.7931238279998,None,d,0,0.5887192119998872,293.7931238279998,None,294.4095669819999,None,294.4095669819999,None,d,0.11613647200010746,294.4095669819999,None,294.55964461199983,None,,,,,sub-03,05/02/2001,1: Male,15/07/2023,001,1: right,2023_Jul_15_1045,[FINAL]_fmri_multiplication,2021.2.3,59.965441436222996
block1.xlsx,257.1,7.5,3.7,9 x 3,27,19,9 x 3 = 27,large-sized_high-interference,large-sized,high-interference,9,CorrectRESP,a,0,0,0,0,0,19,19,19,,,,,,,,,,,,,,,297.0594063589997,None,297.5594433689994,None,299.5591140209999,None,300.3094255469996,None,300.55878408399985,None,300.55878408399985,None,a,0,1.2310128680001071,300.55878408399985,None,301.8087299859999,None,301.8087299859999,None,a,0.9491047470000922,301.8087299859999,None,302.7760440530001,None,,,,,sub-03,05/02/2001,1: Male,15/07/2023,001,1: right,2023_Jul_15_1045,[FINAL]_fmri_multiplication,2021.2.3,59.965441436222996
block1.xlsx,268.3,7.5,3.5,4 x 5,20,8,4 x 5 = 20,small-sized_high-interference,small-sized,high-interference,8,CorrectRESP,a,0,0,0,0,0,20,20,20,,,,,,,,,,,,,,,306.4766206009999,None,306.97628756499944,None,308.9759325489995,None,309.725569,None,309.97570334899956,None,309.97570334899956,None,a,0,0.7100157699996998,309.97570334899956,None,310.7097452600001,None,310.7097452600001,None,d,0.34415994499977387,310.7097452600001,None,311.0762747859999,None,,,,,sub-03,05/02/2001,1: Male,15/07/2023,001,1: right,2023_Jul_15_1045,[FINAL]_fmri_multiplication,2021.2.3,59.965441436222996
block1.xlsx,279.3,7.5,11.6,9 x 9,72,16,9 x 9 = 72,large-sized_low-interference,large-sized,low-interference,6,IncorrectRESP,d,0,0,0,0,0,21,21,21,,,,,,,,,,,,,,,314.57671033799943,None,315.0762998399996,None,317.07667694799966,None,317.84235597099996,None,318.0927573700001,None,318.0927573700001,None,d,0,0.6410737269998208,318.0927573700001,None,318.75926935999996,None,318.75926935999996,None,d,0.13444541199987725,318.75926935999996,None,318.92602201999944,None,,,,,sub-03,05/02/2001,1: Male,15/07/2023,001,1: right,2023_Jul_15_1045,[FINAL]_fmri_multiplication,2021.2.3,59.965441436222996
block1.xlsx,298.4,7.5,12.8,3 x 8,21,12,3 x 8 = 21,small-sized_high-interference,small-sized,high-interference,13,IncorrectRESP,d,0,0,0,0,0,22,22,22,,,,,,,,,,,,,,,330.52635649399963,None,331.0261711809999,None,333.0262605709995,None,333.7758259980001,None,334.02619862899974,None,334.02619862899974,None,d,0,0.5716342790001363,334.02619862899974,None,334.6262988459994,None,334.6262988459994,None,d,0.12351772500005609,334.6262988459994,None,334.77577138200013,None,,,,,sub-03,05/02/2001,1: Male,15/07/2023,001,1: right,2023_Jul_15_1045,[FINAL]_fmri_multiplication,2021.2.3,59.965441436222996
block1.xlsx,318.7,7.5,8.8,8 x 2,18,5,8 x 2 = 18,small-sized_low-interference,small-sized,low-interference,7,IncorrectRESP,d,0,0,0,0,0,23,23,23,,,,,,,,,,,,,,,347.58943829500004,None,348.0927730249996,None,350.0926502,None,350.84333733699987,None,351.0945812,None,351.0945812,None,d,0,0.6152066269996794,351.0945812,None,351.7262239040001,None,351.7262239040001,None,d,0.11949647000074037,351.7262239040001,None,351.8762443149999,None,,,,,sub-03,05/02/2001,1: Male,15/07/2023,001,1: right,2023_Jul_15_1045,[FINAL]_fmri_multiplication,2021.2.3,59.965441436222996
block1.xlsx,,,,,,,,,,,,,,0,0,0,0,,,,,0,0,0,0,,,,,,,,,,,,,,,,,,,,,,,,,,,,,,,,,,,,,,360.67925964799997,None,360.67925964799997,None,sub-03,05/02/2001,1: Male,15/07/2023,001,1: right,2023_Jul_15_1045,[FINAL]_fmri_multiplication,2021.2.3,59.965441436222996
block1.xlsx,,,,,,,,,,,,,,0,0,0,0,,,,,1,0,1,0,,,,,,,,,,,,,,,,,,,,,,,,,,,,,,,,,,,,,,361.69517220599937,None,361.69517220599937,None,sub-03,05/02/2001,1: Male,15/07/2023,001,1: right,2023_Jul_15_1045,[FINAL]_fmri_multiplication,2021.2.3,59.965441436222996
block1.xlsx,,,,,,,,,,,,,,0,0,0,0,,,,,2,0,2,0,,,,,,,,,,,,,,,,,,,,,,,,,,,,,,,,,,,,,,362.69444688599924,None,362.69444688599924,None,sub-03,05/02/2001,1: Male,15/07/2023,001,1: right,2023_Jul_15_1045,[FINAL]_fmri_multiplication,2021.2.3,59.965441436222996
block1.xlsx,,,,,,,,,,,,,,0,0,0,0,,,,,3,0,3,0,,,,,,,,,,,,,,,,,,,,,,,,,,,,,,,,,,,,,,363.6945983,None,363.6945983,None,sub-03,05/02/2001,1: Male,15/07/2023,001,1: right,2023_Jul_15_1045,[FINAL]_fmri_multiplication,2021.2.3,59.965441436222996
block1.xlsx,,,,,,,,,,,,,,0,0,0,0,,,,,4,0,4,0,,,,,,,,,,,,,,,,,,,,,,,,,,,,,,,,,,,,,,364.6936837009998,None,364.6936837009998,None,sub-03,05/02/2001,1: Male,15/07/2023,001,1: right,2023_Jul_15_1045,[FINAL]_fmri_multiplication,2021.2.3,59.965441436222996
block1.xlsx,,,,,,,,,,,,,,0,0,0,0,,,,,5,0,5,0,,,,,,,,,,,,,,,,,,,,,,,,,,,,,,,,,,,,,,365.70694211799946,None,365.70694211799946,None,sub-03,05/02/2001,1: Male,15/07/2023,001,1: right,2023_Jul_15_1045,[FINAL]_fmri_multiplication,2021.2.3,59.965441436222996
block1.xlsx,,,,,,,,,,,,,,0,0,0,0,,,,,6,0,6,0,,,,,,,,,,,,,,,,,,,,,,,,,,,,,,,,,,,,,,366.69432206700003,None,366.69432206700003,None,sub-03,05/02/2001,1: Male,15/07/2023,001,1: right,2023_Jul_15_1045,[FINAL]_fmri_multiplication,2021.2.3,59.965441436222996
block1.xlsx,,,,,,,,,,,,,,0,0,0,0,,,,,7,0,7,0,,,,,,,,,,,,,,,,,,,,,,,,,,,,,,,,,,,,,,367.69343302499965,None,367.69343302499965,None,sub-03,05/02/2001,1: Male,15/07/2023,001,1: right,2023_Jul_15_1045,[FINAL]_fmri_multiplication,2021.2.3,59.965441436222996
block1.xlsx,,,,,,,,,,,,,,0,0,0,0,,,,,8,0,8,0,,,,,,,,,,,,,,,,,,,,,,,,,,,,,,,,,,,,,,368.6933030049995,None,368.6933030049995,None,sub-03,05/02/2001,1: Male,15/07/2023,001,1: right,2023_Jul_15_1045,[FINAL]_fmri_multiplication,2021.2.3,59.965441436222996
block1.xlsx,,,,,,,,,,,,,,0,0,0,0,,,,,9,0,9,0,,,,,,,,,,,,,,,,,,,,,,,,,,,,,,,,,,,,,,369.69411834699986,None,369.69411834699986,None,sub-03,05/02/2001,1: Male,15/07/2023,001,1: right,2023_Jul_15_1045,[FINAL]_fmri_multiplication,2021.2.3,59.965441436222996
block1.xlsx,,,,,,,,,,,,,,0,0,0,0,,,,,10,0,10,0,,,,,,,,,,,,,,,,,,,,,,,,,,,,,,,,,,,,,,370.6931008069996,None,370.6931008069996,None,sub-03,05/02/2001,1: Male,15/07/2023,001,1: right,2023_Jul_15_1045,[FINAL]_fmri_multiplication,2021.2.3,59.965441436222996
block1.xlsx,,,,,,,,,,,,,,0,0,0,0,,,,,11,0,11,0,,,,,,,,,,,,,,,,,,,,,,,,,,,,,,,,,,,,,,371.6936267,None,371.6936267,None,sub-03,05/02/2001,1: Male,15/07/2023,001,1: right,2023_Jul_15_1045,[FINAL]_fmri_multiplication,2021.2.3,59.965441436222996
block1.xlsx,,,,,,,,,,,,,,0,0,0,0,,,,,12,0,12,0,,,,,,,,,,,,,,,,,,,,,,,,,,,,,,,,,,,,,,372.6956617369997,None,372.6956617369997,None,sub-03,05/02/2001,1: Male,15/07/2023,001,1: right,2023_Jul_15_1045,[FINAL]_fmri_multiplication,2021.2.3,59.965441436222996
block1.xlsx,,,,,,,,,,,,,,0,0,0,0,,,,,13,0,13,0,,,,,,,,,,,,,,,,,,,,,,,,,,,,,,,,,,,,,,373.6953849049996,None,373.6953849049996,None,sub-03,05/02/2001,1: Male,15/07/2023,001,1: right,2023_Jul_15_1045,[FINAL]_fmri_multiplication,2021.2.3,59.965441436222996
block1.xlsx,,,,,,,,,,,,,,0,0,0,0,,,,,14,0,14,0,,,,,,,,,,,,,,,,,,,,,,,,,,,,,,,,,,,,,,374.69370498599983,None,374.69370498599983,None,sub-03,05/02/2001,1: Male,15/07/2023,001,1: right,2023_Jul_15_1045,[FINAL]_fmri_multiplication,2021.2.3,59.965441436222996
block1.xlsx,,,,,,,,,,,,,,0,0,0,0,,,,,15,0,15,0,,,,,,,,,,,,,,,,,,,,,,,,,,,,,,,,,,,,,,375.69462527699943,None,375.69462527699943,None,sub-03,05/02/2001,1: Male,15/07/2023,001,1: right,2023_Jul_15_1045,[FINAL]_fmri_multiplication,2021.2.3,59.965441436222996
block1.xlsx,,,,,,,,,,,,,,0,0,0,0,,,,,16,0,16,0,,,,,,,,,,,,,,,,,,,,,,,,,,,,,,,,,,,,,,376.6934072719996,None,376.6934072719996,None,sub-03,05/02/2001,1: Male,15/07/2023,001,1: right,2023_Jul_15_1045,[FINAL]_fmri_multiplication,2021.2.3,59.965441436222996
block1.xlsx,,,,,,,,,,,,,,0,0,0,0,,,,,17,0,17,0,,,,,,,,,,,,,,,,,,,,,,,,,,,,,,,,,,,,,,377.6934868039998,None,377.6934868039998,None,sub-03,05/02/2001,1: Male,15/07/2023,001,1: right,2023_Jul_15_1045,[FINAL]_fmri_multiplication,2021.2.3,59.965441436222996
block1.xlsx,,,,,,,,,,,,,,0,0,0,0,,,,,18,0,18,0,,,,,,,,,,,,,,,,,,,,,,,,,,,,,,,,,,,,,,378.6938482360001,None,378.6938482360001,None,sub-03,05/02/2001,1: Male,15/07/2023,001,1: right,2023_Jul_15_1045,[FINAL]_fmri_multiplication,2021.2.3,59.965441436222996
block1.xlsx,,,,,,,,,,,,,,0,0,0,0,,,,,19,0,19,0,,,,,,,,,,,,,,,,,,,,,,,,,,,,,,,,,,,,,,379.69453221599997,None,379.69453221599997,None,sub-03,05/02/2001,1: Male,15/07/2023,001,1: right,2023_Jul_15_1045,[FINAL]_fmri_multiplication,2021.2.3,59.965441436222996
block1.xlsx,,,,,,,,,,,,,,0,0,0,0,,,,,20,0,20,0,,,,,,,,,,,,,,,,,,,,,,,,,,,,,,,,,,,,,,380.69370109600004,None,380.69370109600004,None,sub-03,05/02/2001,1: Male,15/07/2023,001,1: right,2023_Jul_15_1045,[FINAL]_fmri_multiplication,2021.2.3,59.965441436222996
block1.xlsx,,,,,,,,,,,,,,0,0,0,0,,,,,21,0,21,0,,,,,,,,,,,,,,,,,,,,,,,,,,,,,,,,,,,,,,381.6945173690001,None,381.6945173690001,None,sub-03,05/02/2001,1: Male,15/07/2023,001,1: right,2023_Jul_15_1045,[FINAL]_fmri_multiplication,2021.2.3,59.965441436222996
block1.xlsx,,,,,,,,,,,,,,0,0,0,0,,,,,22,0,22,0,,,,,,,,,,,,,,,,,,,,,,,,,,,,,,,,,,,,,,382.6922357759995,None,382.6922357759995,None,sub-03,05/02/2001,1: Male,15/07/2023,001,1: right,2023_Jul_15_1045,[FINAL]_fmri_multiplication,2021.2.3,59.965441436222996
block1.xlsx,,,,,,,,,,,,,,0,0,0,0,,,,,23,0,23,0,,,,,,,,,,,,,,,,,,,,,,,,,,,,,,,,,,,,,,383.6949522629993,None,383.6949522629993,None,sub-03,05/02/2001,1: Male,15/07/2023,001,1: right,2023_Jul_15_1045,[FINAL]_fmri_multiplication,2021.2.3,59.965441436222996
block1.xlsx,,,,,,,,,,,,,,0,0,0,0,,,,,24,0,24,0,,,,,,,,,,,,,,,,,,,,,,,,,,,,,,,,,,,,,,384.6952494469997,None,384.6952494469997,None,sub-03,05/02/2001,1: Male,15/07/2023,001,1: right,2023_Jul_15_1045,[FINAL]_fmri_multiplication,2021.2.3,59.965441436222996
block1.xlsx,,,,,,,,,,,,,,0,0,0,0,,,,,25,0,25,0,,,,,,,,,,,,,,,,,,,,,,,,,,,,,,,,,,,,,,385.6954744449995,None,385.6954744449995,None,sub-03,05/02/2001,1: Male,15/07/2023,001,1: right,2023_Jul_15_1045,[FINAL]_fmri_multiplication,2021.2.3,59.965441436222996
block1.xlsx,,,,,,,,,,,,,,0,0,0,0,,,,,26,0,26,0,,,,,,,,,,,,,,,,,,,,,,,,,,,,,,,,,,,,,,386.6932259229998,None,386.6932259229998,None,sub-03,05/02/2001,1: Male,15/07/2023,001,1: right,2023_Jul_15_1045,[FINAL]_fmri_multiplication,2021.2.3,59.965441436222996
block1.xlsx,,,,,,,,,,,,,,0,0,0,0,,,,,27,0,27,0,,,,,,,,,,,,,,,,,,,,,,,,,,,,,,,,,,,,,,387.69320289699954,None,387.69320289699954,None,sub-03,05/02/2001,1: Male,15/07/2023,001,1: right,2023_Jul_15_1045,[FINAL]_fmri_multiplication,2021.2.3,59.965441436222996
block1.xlsx,,,,,,,,,,,,,,0,0,0,0,,,,,28,0,28,0,,,,,,,,,,,,,,,,,,,,,,,,,,,,,,,,,,,,,,388.6925263659996,None,388.6925263659996,None,sub-03,05/02/2001,1: Male,15/07/2023,001,1: right,2023_Jul_15_1045,[FINAL]_fmri_multiplication,2021.2.3,59.965441436222996
block1.xlsx,,,,,,,,,,,,,,0,0,0,0,,,,,29,0,29,0,,,,,,,,,,,,,,,,,,,,,,,,,,,,,,,,,,,,,,389.6930103949999,None,389.6930103949999,None,sub-03,05/02/2001,1: Male,15/07/2023,001,1: right,2023_Jul_15_1045,[FINAL]_fmri_multiplication,2021.2.3,59.965441436222996
block1.xlsx,,,,,,,,,,,,,,0,0,0,0,,,,,,,,,,,,,,,,,,,,,,,,,,,,,,,,,,,,,,,,,,,,,,,,,,sub-03,05/02/2001,1: Male,15/07/2023,001,1: right,2023_Jul_15_1045,[FINAL]_fmri_multiplication,2021.2.3,59.965441436222996
block2.xlsx,10,7.5,3.4,3 x 4,15,9,3 x 4 = 15,small-sized_high-interference,small-sized,high-interference,10,IncorrectRESP,d,0,1,1,1,0,0,0,0,,,,,,,,,,,,,390.69373270599954,None,400.71589455199955,None,401.1926331119994,None,403.19228039599966,None,403.9429687129996,None,404.1918246389996,None,404.1918246389996,None,d,0,0.6778537879999931,404.1918246389996,None,404.8923430019995,None,404.8923430019995,None,d,0.12148824399992009,404.8923430019995,None,405.04239777399926,None,,,,,sub-03,05/02/2001,1: Male,15/07/2023,001,1: right,2023_Jul_15_1045,[FINAL]_fmri_multiplication,2021.2.3,59.965441436222996
block2.xlsx,20.9,7.5,7,9 x 5,40,15,9 x 5 = 40,large-sized_low-interference,large-sized,low-interference,6,IncorrectRESP,d,0,1,1,1,0,1,1,1,,,,,,,,,,,,,,,408.44304687399926,None,408.9424288219998,None,410.94315756299966,None,411.6933747089997,None,411.94306799700007,None,411.94306799700007,None,d,0,0.5827351410007395,411.94306799700007,None,412.5431024359996,None,412.5431024359996,None,d,0.11863376000019343,412.5431024359996,None,412.69317420900006,None,,,,,sub-03,05/02/2001,1: Male,15/07/2023,001,1: right,2023_Jul_15_1045,[FINAL]_fmri_multiplication,2021.2.3,59.965441436222996
block2.xlsx,35.4,7.5,6.6,6 x 4,24,10,6 x 4 = 24,small-sized_high-interference,small-sized,high-interference,12,CorrectRESP,a,0,1,1,1,0,2,2,2,,,,,,,,,,,,,,,419.69351821999953,None,420.19330522199925,None,422.1929967169999,None,422.9430283639995,None,423.1917521,None,423.1917521,None,a,0,0.5418848780000189,423.1917521,None,423.7592910679996,None,423.7592910679996,None,d,0.16661504300009256,423.7592910679996,None,423.9432078939999,None,,,,,sub-03,05/02/2001,1: Male,15/07/2023,001,1: right,2023_Jul_15_1045,[FINAL]_fmri_multiplication,2021.2.3,59.965441436222996
block2.xlsx,49.5,7.5,12,7 x 6,42,23,7 x 6 = 42,large-sized_high-interference,large-sized,high-interference,22,CorrectRESP,a,0,1,1,1,0,3,3,3,,,,,,,,,,,,,,,430.54294429699985,None,431.0428539989998,None,433.0430400089999,None,433.7930235670001,None,434.0419101689995,None,434.0419101689995,None,a,0,0.5558799550008189,434.0419101689995,None,434.62596457699965,None,434.62596457699965,None,d,0.1398439979993782,434.62596457699965,None,434.79189730599956,None,,,,,sub-03,05/02/2001,1: Male,15/07/2023,001,1: right,2023_Jul_15_1045,[FINAL]_fmri_multiplication,2021.2.3,59.965441436222996
block2.xlsx,69,7.5,4.9,6 x 2,12,6,6 x 2 = 12,small-sized_low-interference,small-sized,low-interference,3,CorrectRESP,a,0,1,1,1,0,4,4,4,,,,,,,,,,,,,,,446.7930688429997,None,447.2931420300001,None,449.2902048699998,None,450.03184637699997,None,450.27864088799925,None,450.27864088799925,None,a,0,0.48720249199959653,450.27864088799925,None,450.79340990999935,None,450.79340990999935,None,d,0.13248437299989746,450.79340990999935,None,450.9432419619998,None,,,,,sub-03,05/02/2001,1: Male,15/07/2023,001,1: right,2023_Jul_15_1045,[FINAL]_fmri_multiplication,2021.2.3,59.965441436222996
block2.xlsx,81.4,7.5,6.6,4 x 9,32,20,4 x 9 = 32,large-sized_high-interference,large-sized,high-interference,9,IncorrectRESP,d,0,1,1,1,0,5,5,5,,,,,,,,,,,,,,,455.84356580499934,None,456.3432169009993,None,458.34326757300005,None,459.1092719979997,None,459.35955881299924,None,459.35955881299924,None,d,0,1.3663524880003024,459.35955881299924,None,460.74133094899935,None,460.74133094899935,None,a,0.5283913869998287,460.74133094899935,None,461.29307313999925,None,,,,,sub-03,05/02/2001,1: Male,15/07/2023,001,1: right,2023_Jul_15_1045,[FINAL]_fmri_multiplication,2021.2.3,59.965441436222996
block2.xlsx,95.5,7.5,2.6,5 x 5,30,3,5 x 5 = 30,small-sized_low-interference,small-sized,low-interference,3,IncorrectRESP,d,0,1,1,1,0,6,6,6,,,,,,,,,,,,,,,467.89126069099984,None,468.39280196099935,None,470.39299414299967,None,471.1428885079995,None,471.3927111209996,None,471.3927111209996,None,d,0,0.5811665179999181,471.3927111209996,None,471.9927957379996,None,471.9927957379996,None,d,0.12502399400000286,471.9927957379996,None,472.1424674129994,None,,,,,sub-03,05/02/2001,1: Male,15/07/2023,001,1: right,2023_Jul_15_1045,[FINAL]_fmri_multiplication,2021.2.3,59.965441436222996
block2.xlsx,105.6,7.5,3.7,8 x 4,32,24,8 x 4 = 32,large-sized_high-interference,large-sized,high-interference,25,CorrectRESP,a,0,1,1,1,0,7,7,7,,,,,,,,,,,,,,,474.7423896979999,None,475.2414364469996,None,477.2430461069998,None,477.99290981299964,None,478.24296767299984,None,478.24296767299984,None,a,0,0.4427511570002025,478.24296767299984,None,478.70923810299973,None,478.70923810299973,None,d,0.1605046750000838,478.70923810299973,None,478.89230419999967,None,,,,,sub-03,05/02/2001,1: Male,15/07/2023,001,1: right,2023_Jul_15_1045,[FINAL]_fmri_multiplication,2021.2.3,59.965441436222996
block2.xlsx,116.8,7.5,3.1,2 x 9,16,2,2 x 9 = 16,small-sized_low-interference,small-sized,low-interference,7,IncorrectRESP,d,0,1,1,1,0,8,8,8,,,,,,,,,,,,,,,482.5933029969992,None,483.09351126399997,None,485.09345709399986,None,485.84299719199953,None,486.09418686999925,None,486.09418686999925,None,d,1,0.4235135419994549,486.09418686999925,None,486.5427777289997,None,486.5427777289997,None,d,0.15096559900030115,486.5427777289997,None,486.72672634399987,None,,,,,sub-03,05/02/2001,1: Male,15/07/2023,001,1: right,2023_Jul_15_1045,[FINAL]_fmri_multiplication,2021.2.3,59.965441436222996
block2.xlsx,127.4,7.5,12.2,5 x 8,45,21,5 x 8 = 45,large-sized_high-interference,large-sized,high-interference,9,IncorrectRESP,d,0,1,1,1,0,9,9,9,,,,,,,,,,,,,,,489.8267857239998,None,490.34079338599986,None,492.34302428499996,None,493.09312692299955,None,493.3424148999993,None,493.3424148999993,None,None,1,,493.3424148999993,None,495.34297709599923,None,495.34297709599923,None,a,0.5427543989999322,495.34297709599923,None,495.90953992199957,None,,,,,sub-03,05/02/2001,1: Male,15/07/2023,001,1: right,2023_Jul_15_1045,[FINAL]_fmri_multiplication,2021.2.3,59.965441436222996
block2.xlsx,147.1,7.5,13.3,6 x 6,30,13,6 x 6 = 30,large-sized_low-interference,large-sized,low-interference,4,IncorrectRESP,d,0,1,1,1,0,10,10,10,,,,,,,,,,,,,,,508.1091843,None,508.60835766999935,None,510.60964864199923,None,511.35964799999965,None,511.60814816899983,None,511.60814816899983,None,d,0,0.9336758219997137,511.60814816899983,None,512.5593113340001,None,512.5593113340001,None,d,0.20642383499944117,512.5593113340001,None,512.7923266529997,None,,,,,sub-03,05/02/2001,1: Male,15/07/2023,001,1: right,2023_Jul_15_1045,[FINAL]_fmri_multiplication,2021.2.3,59.965441436222996
block2.xlsx,167.9,7.5,2.8,7 x 3,21,11,7 x 3 = 21,small-sized_high-interference,small-sized,high-interference,13,CorrectRESP,a,0,1,1,1,0,11,11,11,,,,,,,,,,,,,,,526.0936200299993,None,526.5930060229994,None,528.5931552499997,None,529.3430188,None,529.5925737369998,None,529.5925737369998,None,a,0,0.509145292,529.5925737369998,None,530.1258625629998,None,530.1258625629998,None,d,0.1678386950006825,530.1258625629998,None,530.3263079059998,None,,,,,sub-03,05/02/2001,1: Male,15/07/2023,001,1: right,2023_Jul_15_1045,[FINAL]_fmri_multiplication,2021.2.3,59.965441436222996
block2.xlsx,178.2,7.5,3.4,8 x 7,56,22,8 x 7 = 56,large-sized_high-interference,large-sized,high-interference,9,CorrectRESP,a,0,1,1,1,0,12,12,12,,,,,,,,,,,,,,,533.1264741899995,None,533.6258998,None,535.6262775189998,None,536.3763613020001,None,536.6249683469996,None,536.6249683469996,None,a,0,0.6367198419993656,536.6249683469996,None,537.2915314789998,None,537.2915314789998,None,d,0.2181540479996329,537.2915314789998,None,537.5263366949994,None,,,,,sub-03,05/02/2001,1: Male,15/07/2023,001,1: right,2023_Jul_15_1045,[FINAL]_fmri_multiplication,2021.2.3,59.965441436222996
block2.xlsx,189.1,7.5,3.9,3 x 8,24,12,3 x 8 = 24,small-sized_high-interference,small-sized,high-interference,13,CorrectRESP,a,0,1,1,1,0,13,13,13,,,,,,,,,,,,,,,540.9262759409994,None,541.4262906039994,None,543.4262079370001,None,544.1761327159993,None,544.4247249009995,None,544.4247249009995,None,a,0,0.4930646439997872,544.4247249009995,None,544.9423114,None,544.9423114,None,d,0.3274414640000032,544.9423114,None,545.2928650909998,None,,,,,sub-03,05/02/2001,1: Male,15/07/2023,001,1: right,2023_Jul_15_1045,[FINAL]_fmri_multiplication,2021.2.3,59.965441436222996
block2.xlsx,200.5,7.5,2,5 x 6,36,14,5 x 6 = 36,large-sized_low-interference,large-sized,low-interference,6,IncorrectRESP,d,0,1,1,1,0,14,14,14,,,,,,,,,,,,,,,549.1926087579996,None,549.6927489599993,None,551.6932027639996,None,552.4599220499995,None,552.7102852499993,None,552.7102852499993,None,d,0,0.7994068319994767,552.7102852499993,None,553.5428578,None,553.5428578,None,d,0.14286815899959038,553.5428578,None,553.7099889479996,None,,,,,sub-03,05/02/2001,1: Male,15/07/2023,001,1: right,2023_Jul_15_1045,[FINAL]_fmri_multiplication,2021.2.3,59.965441436222996
block2.xlsx,210,7.5,8.2,7 x 2,12,1,7 x 2 = 12,small-sized_low-interference,small-sized,low-interference,4,IncorrectRESP,d,0,1,1,1,0,15,15,15,,,,,,,,,,,,,,,555.7100648229998,None,556.2098933379993,None,558.2100115849998,None,558.9599868899995,None,559.2101468129995,None,559.2101468129995,None,d,0,0.7236546000003727,559.2101468129995,None,559.9591058329997,None,559.9591058329997,None,d,0.12662174700017204,559.9591058329997,None,560.1090391359994,None,,,,,sub-03,05/02/2001,1: Male,15/07/2023,001,1: right,2023_Jul_15_1045,[FINAL]_fmri_multiplication,2021.2.3,59.965441436222996
block2.xlsx,225.7,7.5,6.5,9 x 9,81,16,9 x 9 = 81,large-sized_low-interference,large-sized,low-interference,6,CorrectRESP,a,0,1,1,1,0,16,16,16,,,,,,,,,,,,,,,568.3092464739993,None,568.8092828,None,570.8096676,None,571.5596567759994,None,571.8093598,None,571.8093598,None,a,0,0.4923728140001913,571.8093598,None,572.3259111339994,None,572.3259111339994,None,d,0.4159051090000503,572.3259111339994,None,572.7592198359998,None,,,,,sub-03,05/02/2001,1: Male,15/07/2023,001,1: right,2023_Jul_15_1045,[FINAL]_fmri_multiplication,2021.2.3,59.965441436222996
block2.xlsx,239.7,7.5,6.2,4 x 5,16,8,4 x 5 = 16,small-sized_high-interference,small-sized,high-interference,8,IncorrectRESP,d,0,1,1,1,0,17,17,17,,,,,,,,,,,,,,,579.2593821829996,None,579.7582491029998,None,581.7597058909996,None,582.5096039869995,None,582.7600426,None,582.7600426,None,d,0,0.5577850379995652,582.7600426,None,583.3424431409994,None,583.3424431409994,None,d,0.11137516399958258,583.3424431409994,None,583.4759705469996,None,,,,,sub-03,05/02/2001,1: Male,15/07/2023,001,1: right,2023_Jul_15_1045,[FINAL]_fmri_multiplication,2021.2.3,59.965441436222996
block2.xlsx,253.4,7.5,11.8,8 x 2,16,5,8 x 2 = 16,small-sized_low-interference,small-sized,low-interference,7,CorrectRESP,a,0,1,1,1,0,18,18,18,,,,,,,,,,,,,,,589.6732978479995,None,590.1683060589994,None,592.1766765459997,None,592.9266423069994,None,593.1768066799996,None,593.1768066799996,None,a,0,0.8130691879996448,593.1768066799996,None,594.0096584899993,None,594.0096584899993,None,d,0.18813057100032893,594.0096584899993,None,594.2267788159998,None,,,,,sub-03,05/02/2001,1: Male,15/07/2023,001,1: right,2023_Jul_15_1045,[FINAL]_fmri_multiplication,2021.2.3,59.965441436222996
block2.xlsx,272.7,7.5,3.7,7 x 5,35,17,7 x 5 = 35,large-sized_low-interference,large-sized,low-interference,7,CorrectRESP,a,0,1,1,1,0,19,19,19,,,,,,,,,,,,,,,606.0263754529997,None,606.5262761309996,None,608.5263978499997,None,609.2763076,None,609.5262348679998,None,609.5262348679998,None,a,0,0.5354209809993336,609.5262348679998,None,610.0930507829999,None,610.0930507829999,None,d,0.1526972339997883,610.0930507829999,None,610.2764366679994,None,,,,,sub-03,05/02/2001,1: Male,15/07/2023,001,1: right,2023_Jul_15_1045,[FINAL]_fmri_multiplication,2021.2.3,59.965441436222996
block2.xlsx,283.9,7.5,6,6 x 3,15,7,6 x 3 = 15,small-sized_high-interference,small-sized,high-interference,8,IncorrectRESP,d,0,1,1,1,0,20,20,20,,,,,,,,,,,,,,,613.9754161359997,None,614.4761639099997,None,616.4753949010001,None,617.2263328,None,617.4748423,None,617.4748423,None,d,0,0.6108133729994734,617.4748423,None,618.1092323819994,None,618.1092323819994,None,d,0.13655848300004436,618.1092323819994,None,618.2791510139996,None,,,,,sub-03,05/02/2001,1: Male,15/07/2023,001,1: right,2023_Jul_15_1045,[FINAL]_fmri_multiplication,2021.2.3,59.965441436222996
block2.xlsx,297.4,7.5,6.1,9 x 3,24,19,9 x 3 = 24,large-sized_high-interference,large-sized,high-interference,9,IncorrectRESP,d,0,1,1,1,0,21,21,21,,,,,,,,,,,,,,,624.2851562099995,None,624.7932911089993,None,626.7933719489993,None,627.5432365469997,None,627.7934660430001,None,627.7934660430001,None,d,0,0.6282646890003889,627.7934660430001,None,628.4418368659999,None,628.4418368659999,None,d,0.11594837400025426,628.4418368659999,None,628.5759397519996,None,,,,,sub-03,05/02/2001,1: Male,15/07/2023,001,1: right,2023_Jul_15_1045,[FINAL]_fmri_multiplication,2021.2.3,59.965441436222996
block2.xlsx,311,7.5,5.1,4 x 4,16,4,4 x 4 = 16,small-sized_low-interference,small-sized,low-interference,5,CorrectRESP,a,0,1,1,1,0,22,22,22,,,,,,,,,,,,,,,634.6764360239995,None,635.1760304639993,None,637.1762358679998,None,637.9264390239996,None,638.1760164549996,None,638.1760164549996,None,a,0,0.46170849400004954,638.1760164549996,None,638.6593788199998,None,638.6593788199998,None,d,0.14638158299931092,638.6593788199998,None,638.8259441529999,None,,,,,sub-03,05/02/2001,1: Male,15/07/2023,001,1: right,2023_Jul_15_1045,[FINAL]_fmri_multiplication,2021.2.3,59.965441436222996
block2.xlsx,323.6,7.5,3.9,7 x 7,49,18,7 x 7 = 49,large-sized_low-interference,large-sized,low-interference,7,CorrectRESP,a,0,1,1,1,0,23,23,23,,,,,,,,,,,,,,,643.9262882319999,None,644.4263813219995,None,646.4262461170001,None,647.1763674,None,647.4264367209998,None,647.4264367209998,None,a,0,0.6352987919999578,647.4264367209998,None,648.0927773109997,None,648.0927773109997,None,d,0.3849578079998537,648.0927773109997,None,648.5094859989995,None,,,,,sub-03,05/02/2001,1: Male,15/07/2023,001,1: right,2023_Jul_15_1045,[FINAL]_fmri_multiplication,2021.2.3,59.965441436222996
block2.xlsx,,,,,,,,,,,,,,0,1,1,1,,,,,0,0,0,0,,,,,,,,,,,,,,,,,,,,,,,,,,,,,,,,,,,,,,652.4109853159998,None,652.4109853159998,None,sub-03,05/02/2001,1: Male,15/07/2023,001,1: right,2023_Jul_15_1045,[FINAL]_fmri_multiplication,2021.2.3,59.965441436222996
block2.xlsx,,,,,,,,,,,,,,0,1,1,1,,,,,1,0,1,0,,,,,,,,,,,,,,,,,,,,,,,,,,,,,,,,,,,,,,653.4288802779993,None,653.4288802779993,None,sub-03,05/02/2001,1: Male,15/07/2023,001,1: right,2023_Jul_15_1045,[FINAL]_fmri_multiplication,2021.2.3,59.965441436222996
block2.xlsx,,,,,,,,,,,,,,0,1,1,1,,,,,2,0,2,0,,,,,,,,,,,,,,,,,,,,,,,,,,,,,,,,,,,,,,654.4272990740001,None,654.4272990740001,None,sub-03,05/02/2001,1: Male,15/07/2023,001,1: right,2023_Jul_15_1045,[FINAL]_fmri_multiplication,2021.2.3,59.965441436222996
block2.xlsx,,,,,,,,,,,,,,0,1,1,1,,,,,3,0,3,0,,,,,,,,,,,,,,,,,,,,,,,,,,,,,,,,,,,,,,655.4269182,None,655.4269182,None,sub-03,05/02/2001,1: Male,15/07/2023,001,1: right,2023_Jul_15_1045,[FINAL]_fmri_multiplication,2021.2.3,59.965441436222996
block2.xlsx,,,,,,,,,,,,,,0,1,1,1,,,,,4,0,4,0,,,,,,,,,,,,,,,,,,,,,,,,,,,,,,,,,,,,,,656.4288433499996,None,656.4288433499996,None,sub-03,05/02/2001,1: Male,15/07/2023,001,1: right,2023_Jul_15_1045,[FINAL]_fmri_multiplication,2021.2.3,59.965441436222996
block2.xlsx,,,,,,,,,,,,,,0,1,1,1,,,,,5,0,5,0,,,,,,,,,,,,,,,,,,,,,,,,,,,,,,,,,,,,,,657.4280593839994,None,657.4280593839994,None,sub-03,05/02/2001,1: Male,15/07/2023,001,1: right,2023_Jul_15_1045,[FINAL]_fmri_multiplication,2021.2.3,59.965441436222996
block2.xlsx,,,,,,,,,,,,,,0,1,1,1,,,,,6,0,6,0,,,,,,,,,,,,,,,,,,,,,,,,,,,,,,,,,,,,,,658.4290690099997,None,658.4290690099997,None,sub-03,05/02/2001,1: Male,15/07/2023,001,1: right,2023_Jul_15_1045,[FINAL]_fmri_multiplication,2021.2.3,59.965441436222996
block2.xlsx,,,,,,,,,,,,,,0,1,1,1,,,,,7,0,7,0,,,,,,,,,,,,,,,,,,,,,,,,,,,,,,,,,,,,,,659.4124302569999,None,659.4124302569999,None,sub-03,05/02/2001,1: Male,15/07/2023,001,1: right,2023_Jul_15_1045,[FINAL]_fmri_multiplication,2021.2.3,59.965441436222996
block2.xlsx,,,,,,,,,,,,,,0,1,1,1,,,,,8,0,8,0,,,,,,,,,,,,,,,,,,,,,,,,,,,,,,,,,,,,,,660.4245251960001,None,660.4245251960001,None,sub-03,05/02/2001,1: Male,15/07/2023,001,1: right,2023_Jul_15_1045,[FINAL]_fmri_multiplication,2021.2.3,59.965441436222996
block2.xlsx,,,,,,,,,,,,,,0,1,1,1,,,,,9,0,9,0,,,,,,,,,,,,,,,,,,,,,,,,,,,,,,,,,,,,,,661.4254882899995,None,661.4254882899995,None,sub-03,05/02/2001,1: Male,15/07/2023,001,1: right,2023_Jul_15_1045,[FINAL]_fmri_multiplication,2021.2.3,59.965441436222996
block2.xlsx,,,,,,,,,,,,,,0,1,1,1,,,,,10,0,10,0,,,,,,,,,,,,,,,,,,,,,,,,,,,,,,,,,,,,,,662.4264449129996,None,662.4264449129996,None,sub-03,05/02/2001,1: Male,15/07/2023,001,1: right,2023_Jul_15_1045,[FINAL]_fmri_multiplication,2021.2.3,59.965441436222996
block2.xlsx,,,,,,,,,,,,,,0,1,1,1,,,,,11,0,11,0,,,,,,,,,,,,,,,,,,,,,,,,,,,,,,,,,,,,,,663.4271368679993,None,663.4271368679993,None,sub-03,05/02/2001,1: Male,15/07/2023,001,1: right,2023_Jul_15_1045,[FINAL]_fmri_multiplication,2021.2.3,59.965441436222996
block2.xlsx,,,,,,,,,,,,,,0,1,1,1,,,,,12,0,12,0,,,,,,,,,,,,,,,,,,,,,,,,,,,,,,,,,,,,,,664.4289570499996,None,664.4289570499996,None,sub-03,05/02/2001,1: Male,15/07/2023,001,1: right,2023_Jul_15_1045,[FINAL]_fmri_multiplication,2021.2.3,59.965441436222996
block2.xlsx,,,,,,,,,,,,,,0,1,1,1,,,,,13,0,13,0,,,,,,,,,,,,,,,,,,,,,,,,,,,,,,,,,,,,,,665.4270692149994,None,665.4270692149994,None,sub-03,05/02/2001,1: Male,15/07/2023,001,1: right,2023_Jul_15_1045,[FINAL]_fmri_multiplication,2021.2.3,59.965441436222996
block2.xlsx,,,,,,,,,,,,,,0,1,1,1,,,,,14,0,14,0,,,,,,,,,,,,,,,,,,,,,,,,,,,,,,,,,,,,,,666.4291045,None,666.4291045,None,sub-03,05/02/2001,1: Male,15/07/2023,001,1: right,2023_Jul_15_1045,[FINAL]_fmri_multiplication,2021.2.3,59.965441436222996
block2.xlsx,,,,,,,,,,,,,,0,1,1,1,,,,,15,0,15,0,,,,,,,,,,,,,,,,,,,,,,,,,,,,,,,,,,,,,,667.4272992469996,None,667.4272992469996,None,sub-03,05/02/2001,1: Male,15/07/2023,001,1: right,2023_Jul_15_1045,[FINAL]_fmri_multiplication,2021.2.3,59.965441436222996
block2.xlsx,,,,,,,,,,,,,,0,1,1,1,,,,,16,0,16,0,,,,,,,,,,,,,,,,,,,,,,,,,,,,,,,,,,,,,,668.4271878,None,668.4271878,None,sub-03,05/02/2001,1: Male,15/07/2023,001,1: right,2023_Jul_15_1045,[FINAL]_fmri_multiplication,2021.2.3,59.965441436222996
block2.xlsx,,,,,,,,,,,,,,0,1,1,1,,,,,17,0,17,0,,,,,,,,,,,,,,,,,,,,,,,,,,,,,,,,,,,,,,669.4280569149996,None,669.4280569149996,None,sub-03,05/02/2001,1: Male,15/07/2023,001,1: right,2023_Jul_15_1045,[FINAL]_fmri_multiplication,2021.2.3,59.965441436222996
block2.xlsx,,,,,,,,,,,,,,0,1,1,1,,,,,18,0,18,0,,,,,,,,,,,,,,,,,,,,,,,,,,,,,,,,,,,,,,670.4260115139996,None,670.4260115139996,None,sub-03,05/02/2001,1: Male,15/07/2023,001,1: right,2023_Jul_15_1045,[FINAL]_fmri_multiplication,2021.2.3,59.965441436222996
block2.xlsx,,,,,,,,,,,,,,0,1,1,1,,,,,19,0,19,0,,,,,,,,,,,,,,,,,,,,,,,,,,,,,,,,,,,,,,671.4265391009994,None,671.4265391009994,None,sub-03,05/02/2001,1: Male,15/07/2023,001,1: right,2023_Jul_15_1045,[FINAL]_fmri_multiplication,2021.2.3,59.965441436222996
block2.xlsx,,,,,,,,,,,,,,0,1,1,1,,,,,20,0,20,0,,,,,,,,,,,,,,,,,,,,,,,,,,,,,,,,,,,,,,672.4254567059997,None,672.4254567059997,None,sub-03,05/02/2001,1: Male,15/07/2023,001,1: right,2023_Jul_15_1045,[FINAL]_fmri_multiplication,2021.2.3,59.965441436222996
block2.xlsx,,,,,,,,,,,,,,0,1,1,1,,,,,21,0,21,0,,,,,,,,,,,,,,,,,,,,,,,,,,,,,,,,,,,,,,673.4268698,None,673.4268698,None,sub-03,05/02/2001,1: Male,15/07/2023,001,1: right,2023_Jul_15_1045,[FINAL]_fmri_multiplication,2021.2.3,59.965441436222996
block2.xlsx,,,,,,,,,,,,,,0,1,1,1,,,,,22,0,22,0,,,,,,,,,,,,,,,,,,,,,,,,,,,,,,,,,,,,,,674.4249136449998,None,674.4249136449998,None,sub-03,05/02/2001,1: Male,15/07/2023,001,1: right,2023_Jul_15_1045,[FINAL]_fmri_multiplication,2021.2.3,59.965441436222996
block2.xlsx,,,,,,,,,,,,,,0,1,1,1,,,,,23,0,23,0,,,,,,,,,,,,,,,,,,,,,,,,,,,,,,,,,,,,,,675.4262638989994,None,675.4262638989994,None,sub-03,05/02/2001,1: Male,15/07/2023,001,1: right,2023_Jul_15_1045,[FINAL]_fmri_multiplication,2021.2.3,59.965441436222996
block2.xlsx,,,,,,,,,,,,,,0,1,1,1,,,,,24,0,24,0,,,,,,,,,,,,,,,,,,,,,,,,,,,,,,,,,,,,,,676.4262830039997,None,676.4262830039997,None,sub-03,05/02/2001,1: Male,15/07/2023,001,1: right,2023_Jul_15_1045,[FINAL]_fmri_multiplication,2021.2.3,59.965441436222996
block2.xlsx,,,,,,,,,,,,,,0,1,1,1,,,,,25,0,25,0,,,,,,,,,,,,,,,,,,,,,,,,,,,,,,,,,,,,,,677.4262760359998,None,677.4262760359998,None,sub-03,05/02/2001,1: Male,15/07/2023,001,1: right,2023_Jul_15_1045,[FINAL]_fmri_multiplication,2021.2.3,59.965441436222996
block2.xlsx,,,,,,,,,,,,,,0,1,1,1,,,,,26,0,26,0,,,,,,,,,,,,,,,,,,,,,,,,,,,,,,,,,,,,,,678.4261334519997,None,678.4261334519997,None,sub-03,05/02/2001,1: Male,15/07/2023,001,1: right,2023_Jul_15_1045,[FINAL]_fmri_multiplication,2021.2.3,59.965441436222996
block2.xlsx,,,,,,,,,,,,,,0,1,1,1,,,,,27,0,27,0,,,,,,,,,,,,,,,,,,,,,,,,,,,,,,,,,,,,,,679.4264523379998,None,679.4264523379998,None,sub-03,05/02/2001,1: Male,15/07/2023,001,1: right,2023_Jul_15_1045,[FINAL]_fmri_multiplication,2021.2.3,59.965441436222996
block2.xlsx,,,,,,,,,,,,,,0,1,1,1,,,,,28,0,28,0,,,,,,,,,,,,,,,,,,,,,,,,,,,,,,,,,,,,,,680.4263079,None,680.4263079,None,sub-03,05/02/2001,1: Male,15/07/2023,001,1: right,2023_Jul_15_1045,[FINAL]_fmri_multiplication,2021.2.3,59.965441436222996
block2.xlsx,,,,,,,,,,,,,,0,1,1,1,,,,,29,0,29,0,,,,,,,,,,,,,,,,,,,,,,,,,,,,,,,,,,,,,,681.4263172259998,None,681.4263172259998,None,sub-03,05/02/2001,1: Male,15/07/2023,001,1: right,2023_Jul_15_1045,[FINAL]_fmri_multiplication,2021.2.3,59.965441436222996
block2.xlsx,,,,,,,,,,,,,,0,1,1,1,,,,,,,,,,,,,,,,,,,,,,,,,,,,,,,,,,,,,,,,,,,,,,,,,,sub-03,05/02/2001,1: Male,15/07/2023,001,1: right,2023_Jul_15_1045,[FINAL]_fmri_multiplication,2021.2.3,59.965441436222996
block3.xlsx,10,7.5,5.9,6 x 4,24,10,6 x 4 = 24,small-sized_high-interference,small-sized,high-interference,12,CorrectRESP,a,0,2,2,2,0,0,0,0,,,,,,,,,,,,,682.4275866079997,None,692.4498518169994,None,692.9252527769995,None,694.9267099250001,None,695.6768416,None,695.9268287349996,None,695.9268287349996,None,a,0,0.7589144300000044,695.9268287349996,None,696.709443,None,696.709443,None,d,0.12827945699973498,696.709443,None,696.8596239239996,None,,,,,sub-03,05/02/2001,1: Male,15/07/2023,001,1: right,2023_Jul_15_1045,[FINAL]_fmri_multiplication,2021.2.3,59.965441436222996
block3.xlsx,23.4,7.5,2,6 x 6,30,13,6 x 6 = 30,large-sized_low-interference,large-sized,low-interference,4,IncorrectRESP,d,0,2,2,2,0,1,1,1,,,,,,,,,,,,,,,702.7599711289995,None,703.2579123099995,None,705.2596303,None,706.0099462919998,None,706.2587556919998,None,706.2587556919998,None,d,0,0.626955079,706.2587556919998,None,706.9090588660001,None,706.9090588660001,None,d,0.080773803,706.9090588660001,None,707.0093232999998,None,,,,,sub-03,05/02/2001,1: Male,15/07/2023,001,1: right,2023_Jul_15_1045,[FINAL]_fmri_multiplication,2021.2.3,59.965441436222996
block3.xlsx,32.9,7.5,3.2,2 x 9,18,2,2 x 9 = 18,small-sized_low-interference,small-sized,low-interference,7,CorrectRESP,a,0,2,2,2,0,2,2,2,,,,,,,,,,,,,,,709.0098316429994,None,709.5092918189994,None,711.5096955909994,None,712.2596885610001,None,712.5094001929992,None,712.5094001929992,None,a,0,0.9603364880003937,712.5094001929992,None,713.4916893330001,None,713.4916893330001,None,d,0.5380378010004279,713.4916893330001,None,714.0596586619995,None,,,,,sub-03,05/02/2001,1: Male,15/07/2023,001,1: right,2023_Jul_15_1045,[FINAL]_fmri_multiplication,2021.2.3,59.965441436222996
block3.xlsx,43.6,7.5,6,3 x 4,12,9,3 x 4 = 12,small-sized_high-interference,small-sized,high-interference,10,CorrectRESP,a,0,2,2,2,0,3,3,3,,,,,,,,,,,,,,,717.2596698499992,None,717.7593743829993,None,719.759233,None,720.5096494999998,None,720.7593225119999,None,720.7593225119999,None,a,0,0.4545086110001648,720.7593225119999,None,721.2428640419994,None,721.2428640419994,None,d,0.178920173,721.2428640419994,None,721.4418524409994,None,,,,,sub-03,05/02/2001,1: Male,15/07/2023,001,1: right,2023_Jul_15_1045,[FINAL]_fmri_multiplication,2021.2.3,59.965441436222996
block3.xlsx,57.1,7.5,13.3,7 x 5,40,17,7 x 5 = 40,large-sized_low-interference,large-sized,low-interference,7,IncorrectRESP,d,0,2,2,2,0,4,4,4,,,,,,,,,,,,,,,727.4428696,None,727.9430903639995,None,729.9489813789996,None,730.6895555739993,None,730.936772,None,730.936772,None,d,0,0.6130326610000338,730.936772,None,731.5764536,None,731.5764536,None,d,0.05327568,731.5764536,None,731.6600484329992,None,,,,,sub-03,05/02/2001,1: Male,15/07/2023,001,1: right,2023_Jul_15_1045,[FINAL]_fmri_multiplication,2021.2.3,59.965441436222996
block3.xlsx,77.9,7.5,2,8 x 7,56,22,8 x 7 = 56,large-sized_high-interference,large-sized,high-interference,9,CorrectRESP,a,0,2,2,2,0,5,5,5,,,,,,,,,,,,,,,744.9593619749994,None,745.4594621509996,None,747.4597482599993,None,748.2097141619997,None,748.4589294,None,748.4589294,None,a,0,0.6027500250002049,748.4589294,None,749.0928613919996,None,749.0928613919996,None,d,0.19286042000021553,749.0928613919996,None,749.3091863969994,None,,,,,sub-03,05/02/2001,1: Male,15/07/2023,001,1: right,2023_Jul_15_1045,[FINAL]_fmri_multiplication,2021.2.3,59.965441436222996
block3.xlsx,87.4,7.5,2.6,9 x 9,81,16,9 x 9 = 81,large-sized_low-interference,large-sized,low-interference,6,CorrectRESP,a,0,2,2,2,0,6,6,6,,,,,,,,,,,,,,,751.3096304589999,None,751.8092581269993,None,753.8090146099994,None,754.5594549869993,None,754.8094056949994,None,754.8094056949994,None,a,0,0.5884932750004737,754.8094056949994,None,755.4248236200001,None,755.4248236200001,None,d,0.20504137799980526,755.4248236200001,None,755.6596454,None,,,,,sub-03,05/02/2001,1: Male,15/07/2023,001,1: right,2023_Jul_15_1045,[FINAL]_fmri_multiplication,2021.2.3,59.965441436222996
block3.xlsx,97.5,7.5,2.7,4 x 5,20,8,4 x 5 = 20,small-sized_high-interference,small-sized,high-interference,8,CorrectRESP,a,0,2,2,2,0,7,7,7,,,,,,,,,,,,,,,758.2596552369996,None,758.7596112040001,None,760.7595261419992,None,761.5097368549996,None,761.7596308759994,None,761.7596308759994,None,a,0,0.5822692839992669,761.7596308759994,None,762.3593872459996,None,762.3593872459996,None,d,0.46235814099964045,762.3593872459996,None,762.8426757039997,None,,,,,sub-03,05/02/2001,1: Male,15/07/2023,001,1: right,2023_Jul_15_1045,[FINAL]_fmri_multiplication,2021.2.3,59.965441436222996
block3.xlsx,107.7,7.5,8.4,9 x 3,24,19,9 x 3 = 24,large-sized_high-interference,large-sized,high-interference,9,IncorrectRESP,d,0,2,2,2,0,8,8,8,,,,,,,,,,,,,,,765.5405605369997,None,766.0436608239997,None,768.0433652829997,None,768.7933429,None,769.0440358099995,None,769.0440358099995,None,d,0,0.6416758269997445,769.0440358099995,None,769.7095774479994,None,769.7095774479994,None,d,0.1281522680001217,769.7095774479994,None,769.8591217,None,,,,,sub-03,05/02/2001,1: Male,15/07/2023,001,1: right,2023_Jul_15_1045,[FINAL]_fmri_multiplication,2021.2.3,59.965441436222996
block3.xlsx,123.6,7.5,2.2,9 x 5,45,15,9 x 5 = 45,large-sized_low-interference,large-sized,low-interference,6,CorrectRESP,a,0,2,2,2,0,9,9,9,,,,,,,,,,,,,,,778.2597098099995,None,778.7583986469999,None,780.7596988939995,None,781.5096711639999,None,781.7593337519993,None,781.7593337519993,None,a,0,0.7103942120002102,781.7593337519993,None,782.4925862159998,None,782.4925862159998,None,d,0.22527489599997352,782.4925862159998,None,782.7425526119996,None,,,,,sub-03,05/02/2001,1: Male,15/07/2023,001,1: right,2023_Jul_15_1045,[FINAL]_fmri_multiplication,2021.2.3,59.965441436222996
block3.xlsx,133.3,7.5,9.7,4 x 4,16,4,4 x 4 = 16,small-sized_low-interference,small-sized,low-interference,5,CorrectRESP,a,0,2,2,2,0,10,10,10,,,,,,,,,,,,,,,784.9428615930001,None,785.4426557339993,None,787.4579707929997,None,788.2079354829993,None,788.4570623809996,None,788.4570623809996,None,a,0,0.5006898239998918,788.4570623809996,None,788.9746041039998,None,788.9746041039998,None,d,0.24723180900036823,788.9746041039998,None,789.2412818859993,None,,,,,sub-03,05/02/2001,1: Male,15/07/2023,001,1: right,2023_Jul_15_1045,[FINAL]_fmri_multiplication,2021.2.3,59.965441436222996
block3.xlsx,150.5,7.5,5.4,8 x 4,28,24,8 x 4 = 28,large-sized_high-interference,large-sized,high-interference,25,IncorrectRESP,d,0,2,2,2,0,11,11,11,,,,,,,,,,,,,,,798.9428191,None,799.4435215249996,None,801.4434185,None,802.1923234719998,None,802.4442427989998,None,802.4442427989998,None,d,0,0.6894885940000677,802.4442427989998,None,803.1596188489993,None,803.1596188489993,None,d,0.1261028199996872,803.1596188489993,None,803.3096314519998,None,,,,,sub-03,05/02/2001,1: Male,15/07/2023,001,1: right,2023_Jul_15_1045,[FINAL]_fmri_multiplication,2021.2.3,59.965441436222996
block3.xlsx,163.4,7.5,10.5,8 x 2,18,5,8 x 2 = 18,small-sized_low-interference,small-sized,low-interference,7,IncorrectRESP,d,0,2,2,2,0,12,12,12,,,,,,,,,,,,,,,808.7098704,None,809.2083294829999,None,811.2096235019999,None,811.9596690660001,None,812.2092018879994,None,812.2092018879994,None,d,0,1.332661759000075,812.2092018879994,None,813.5594060659996,None,813.5594060659996,None,a,0.7022984300001553,813.5594060659996,None,814.2919733,None,,,,,sub-03,05/02/2001,1: Male,15/07/2023,001,1: right,2023_Jul_15_1045,[FINAL]_fmri_multiplication,2021.2.3,59.965441436222996
block3.xlsx,181.4,7.5,3.5,7 x 6,48,23,7 x 6 = 48,large-sized_high-interference,large-sized,high-interference,22,IncorrectRESP,d,0,2,2,2,0,13,13,13,,,,,,,,,,,,,,,824.7923797679996,None,825.2930257,None,827.2926406899996,None,828.0429749,None,828.2932052779997,None,828.2932052779997,None,d,0,0.6326364280002963,828.2932052779997,None,828.9428991340001,None,828.9428991340001,None,d,0.1268486919998395,828.9428991340001,None,829.0924902279994,None,,,,,sub-03,05/02/2001,1: Male,15/07/2023,001,1: right,2023_Jul_15_1045,[FINAL]_fmri_multiplication,2021.2.3,59.965441436222996
block3.xlsx,192.4,7.5,11.8,5 x 6,30,14,5 x 6 = 30,large-sized_low-interference,large-sized,low-interference,6,CorrectRESP,a,0,2,2,2,0,14,14,14,,,,,,,,,,,,,,,832.5931873399995,None,833.0930298139992,None,835.0904459999992,None,835.8318218199993,None,836.0785841809993,None,836.0785841809993,None,a,0,0.6071559869997145,836.0785841809993,None,836.7094983910001,None,836.7094983910001,None,d,0.1603501129993674,836.7094983910001,None,836.8926222330001,None,,,,,sub-03,05/02/2001,1: Male,15/07/2023,001,1: right,2023_Jul_15_1045,[FINAL]_fmri_multiplication,2021.2.3,59.965441436222996
block3.xlsx,211.7,7.5,3.7,4 x 9,36,20,4 x 9 = 36,large-sized_high-interference,large-sized,high-interference,9,CorrectRESP,a,0,2,2,2,0,15,15,15,,,,,,,,,,,,,,,848.6929981,None,849.1927515499992,None,851.1929370119997,None,851.9429982499996,None,852.1927452959999,None,852.1927452959999,None,a,0,0.5811372580001262,852.1927452959999,None,852.7923778619997,None,852.7923778619997,None,d,0.18141879300037544,852.7923778619997,None,852.9925317,None,,,,,sub-03,05/02/2001,1: Male,15/07/2023,001,1: right,2023_Jul_15_1045,[FINAL]_fmri_multiplication,2021.2.3,59.965441436222996
block3.xlsx,222.9,7.5,2.5,7 x 7,56,18,7 x 7 = 56,large-sized_low-interference,large-sized,low-interference,7,IncorrectRESP,d,0,2,2,2,0,16,16,16,,,,,,,,,,,,,,,856.6931602919994,None,857.1927372849996,None,859.1929772069998,None,859.9430892549999,None,860.2094739699996,None,860.2094739699996,None,d,0,1.028252937000616,860.2094739699996,None,861.2591286050001,None,861.2591286050001,None,d,0.14666527999997925,861.2591286050001,None,861.4258640909993,None,,,,,sub-03,05/02/2001,1: Male,15/07/2023,001,1: right,2023_Jul_15_1045,[FINAL]_fmri_multiplication,2021.2.3,59.965441436222996
block3.xlsx,232.9,7.5,9,6 x 3,15,7,6 x 3 = 15,small-sized_high-interference,small-sized,high-interference,8,IncorrectRESP,d,0,2,2,2,0,17,17,17,,,,,,,,,,,,,,,863.9263425270001,None,864.4257368,None,866.4260047259995,None,867.1762288209993,None,867.4272268059995,None,867.4272268059995,None,d,0,0.6986488700003974,867.4272268059995,None,868.1420081809993,None,868.1420081809993,None,d,0.095696389,868.1420081809993,None,868.2586225679997,None,,,,,sub-03,05/02/2001,1: Male,15/07/2023,001,1: right,2023_Jul_15_1045,[FINAL]_fmri_multiplication,2021.2.3,59.965441436222996
block3.xlsx,249.4,7.5,9.5,7 x 2,12,1,7 x 2 = 12,small-sized_low-interference,small-sized,low-interference,4,IncorrectRESP,d,0,2,2,2,0,18,18,18,,,,,,,,,,,,,,,877.2594946899999,None,877.7580805,None,879.7598196019999,None,880.5099494289998,None,880.7588739209996,None,880.7588739209996,None,d,0,0.7028531279993331,880.7588739209996,None,881.4932635719997,None,881.4932635719997,None,d,0.072589138,881.4932635719997,None,881.5934321799996,None,,,,,sub-03,05/02/2001,1: Male,15/07/2023,001,1: right,2023_Jul_15_1045,[FINAL]_fmri_multiplication,2021.2.3,59.965441436222996
block3.xlsx,266.4,7.5,11.1,5 x 8,40,21,5 x 8 = 40,large-sized_high-interference,large-sized,high-interference,9,CorrectRESP,a,0,2,2,2,0,19,19,19,,,,,,,,,,,,,,,891.0931336919994,None,891.5920506019993,None,893.5925732159994,None,894.3425006179996,None,894.5933650869993,None,894.5933650869993,None,a,0,0.6044557289997101,894.5933650869993,None,895.2257217339993,None,895.2257217339993,None,d,0.15607495600033872,895.2257217339993,None,895.4091096960001,None,,,,,sub-03,05/02/2001,1: Male,15/07/2023,001,1: right,2023_Jul_15_1045,[FINAL]_fmri_multiplication,2021.2.3,59.965441436222996
block3.xlsx,285,7.5,3.8,3 x 8,21,12,3 x 8 = 21,small-sized_high-interference,small-sized,high-interference,13,IncorrectRESP,d,0,2,2,2,0,20,20,20,,,,,,,,,,,,,,,906.5072677759999,None,907.0117840429994,None,909.0268380549996,None,909.7767246269996,None,910.0282324469999,None,910.0282324469999,None,d,0,0.5295617640003911,910.0282324469999,None,910.5762488,None,910.5762488,None,d,0.10947560500062536,910.5762488,None,910.7093427789996,None,,,,,sub-03,05/02/2001,1: Male,15/07/2023,001,1: right,2023_Jul_15_1045,[FINAL]_fmri_multiplication,2021.2.3,59.965441436222996
block3.xlsx,296.3,7.5,11.2,5 x 5,25,3,5 x 5 = 25,small-sized_low-interference,small-sized,low-interference,3,CorrectRESP,a,0,2,2,2,0,21,21,21,,,,,,,,,,,,,,,914.5097094539997,None,915.0078546320001,None,917.0098446969996,None,917.7597455939995,None,918.0083087859994,None,918.0083087859994,None,a,0,0.6050988080005482,918.0083087859994,None,918.6427588669994,None,918.6427588669994,None,d,0.1390815710001334,918.6427588669994,None,918.809585,None,,,,,sub-03,05/02/2001,1: Male,15/07/2023,001,1: right,2023_Jul_15_1045,[FINAL]_fmri_multiplication,2021.2.3,59.965441436222996
block3.xlsx,315,7.5,2.6,7 x 3,24,11,7 x 3 = 24,small-sized_high-interference,small-sized,high-interference,13,IncorrectRESP,d,0,2,2,2,0,22,22,22,,,,,,,,,,,,,,,930.0090396019996,None,930.5095619699996,None,932.5090691679998,None,933.2596113809996,None,933.5099224339992,None,933.5099224339992,None,d,0,0.6638748339992162,933.5099224339992,None,934.1922138159998,None,934.1922138159998,None,d,0.125609891,934.1922138159998,None,934.3425152780001,None,,,,,sub-03,05/02/2001,1: Male,15/07/2023,001,1: right,2023_Jul_15_1045,[FINAL]_fmri_multiplication,2021.2.3,59.965441436222996
block3.xlsx,325.1,7.5,2.4,6 x 2,10,6,6 x 2 = 10,small-sized_low-interference,small-sized,low-interference,3,IncorrectRESP,d,0,2,2,2,0,23,23,23,,,,,,,,,,,,,,,936.9431439539994,None,937.4418740439996,None,939.4421817619996,None,940.1906617,None,940.4434201799995,None,940.4434201799995,None,d,0,0.5383900040005756,940.4434201799995,None,940.9988601019995,None,940.9988601019995,None,d,0.12684907099992415,940.9988601019995,None,941.1454906179997,None,,,,,sub-03,05/02/2001,1: Male,15/07/2023,001,1: right,2023_Jul_15_1045,[FINAL]_fmri_multiplication,2021.2.3,59.965441436222996
block3.xlsx,,,,,,,,,,,,,,0,2,2,2,,,,,0,0,0,0,,,,,,,,,,,,,,,,,,,,,,,,,,,,,,,,,,,,,,943.5600404649995,None,943.5600404649995,None,sub-03,05/02/2001,1: Male,15/07/2023,001,1: right,2023_Jul_15_1045,[FINAL]_fmri_multiplication,2021.2.3,59.965441436222996
block3.xlsx,,,,,,,,,,,,,,0,2,2,2,,,,,1,0,1,0,,,,,,,,,,,,,,,,,,,,,,,,,,,,,,,,,,,,,,944.5598071529994,944.5598071529994,944.5598071529994,944.5598071529994,sub-03,05/02/2001,1: Male,15/07/2023,001,1: right,2023_Jul_15_1045,[FINAL]_fmri_multiplication,2021.2.3,59.965441436222996
block3.xlsx,,,,,,,,,,,,,,0,2,2,2,,,,,2,0,2,0,,,,,,,,,,,,,,,,,,,,,,,,,,,,,,,,,,,,,,945.5587215609994,945.5587215609994,945.5587215609994,945.5587215609994,sub-03,05/02/2001,1: Male,15/07/2023,001,1: right,2023_Jul_15_1045,[FINAL]_fmri_multiplication,2021.2.3,59.965441436222996
block3.xlsx,,,,,,,,,,,,,,0,2,2,2,,,,,3,0,3,0,,,,,,,,,,,,,,,,,,,,,,,,,,,,,,,,,,,,,,946.5600298,946.5600298,946.5600298,946.5600298,sub-03,05/02/2001,1: Male,15/07/2023,001,1: right,2023_Jul_15_1045,[FINAL]_fmri_multiplication,2021.2.3,59.965441436222996
block3.xlsx,,,,,,,,,,,,,,0,2,2,2,,,,,4,0,4,0,,,,,,,,,,,,,,,,,,,,,,,,,,,,,,,,,,,,,,947.5591515169999,947.5591515169999,947.5591515169999,947.5591515169999,sub-03,05/02/2001,1: Male,15/07/2023,001,1: right,2023_Jul_15_1045,[FINAL]_fmri_multiplication,2021.2.3,59.965441436222996
block3.xlsx,,,,,,,,,,,,,,0,2,2,2,,,,,5,0,5,0,,,,,,,,,,,,,,,,,,,,,,,,,,,,,,,,,,,,,,948.5603829869997,948.5603829869997,948.5603829869997,948.5603829869997,sub-03,05/02/2001,1: Male,15/07/2023,001,1: right,2023_Jul_15_1045,[FINAL]_fmri_multiplication,2021.2.3,59.965441436222996
block3.xlsx,,,,,,,,,,,,,,0,2,2,2,,,,,6,0,6,0,,,,,,,,,,,,,,,,,,,,,,,,,,,,,,,,,,,,,,949.5598778489993,949.5598778489993,949.5598778489993,949.5598778489993,sub-03,05/02/2001,1: Male,15/07/2023,001,1: right,2023_Jul_15_1045,[FINAL]_fmri_multiplication,2021.2.3,59.965441436222996
block3.xlsx,,,,,,,,,,,,,,0,2,2,2,,,,,7,0,7,0,,,,,,,,,,,,,,,,,,,,,,,,,,,,,,,,,,,,,,950.5580330899993,950.5580330899993,950.5580330899993,950.5580330899993,sub-03,05/02/2001,1: Male,15/07/2023,001,1: right,2023_Jul_15_1045,[FINAL]_fmri_multiplication,2021.2.3,59.965441436222996
block3.xlsx,,,,,,,,,,,,,,0,2,2,2,,,,,8,0,8,0,,,,,,,,,,,,,,,,,,,,,,,,,,,,,,,,,,,,,,951.5587067189999,951.5587067189999,951.5587067189999,951.5587067189999,sub-03,05/02/2001,1: Male,15/07/2023,001,1: right,2023_Jul_15_1045,[FINAL]_fmri_multiplication,2021.2.3,59.965441436222996
block3.xlsx,,,,,,,,,,,,,,0,2,2,2,,,,,9,0,9,0,,,,,,,,,,,,,,,,,,,,,,,,,,,,,,,,,,,,,,952.5594515550001,952.5594515550001,952.5594515550001,952.5594515550001,sub-03,05/02/2001,1: Male,15/07/2023,001,1: right,2023_Jul_15_1045,[FINAL]_fmri_multiplication,2021.2.3,59.965441436222996
block3.xlsx,,,,,,,,,,,,,,0,2,2,2,,,,,10,0,10,0,,,,,,,,,,,,,,,,,,,,,,,,,,,,,,,,,,,,,,953.5593905249998,953.5593905249998,953.5593905249998,953.5593905249998,sub-03,05/02/2001,1: Male,15/07/2023,001,1: right,2023_Jul_15_1045,[FINAL]_fmri_multiplication,2021.2.3,59.965441436222996
block3.xlsx,,,,,,,,,,,,,,0,2,2,2,,,,,11,0,11,0,,,,,,,,,,,,,,,,,,,,,,,,,,,,,,,,,,,,,,954.5592289259994,954.5592289259994,954.5592289259994,954.5592289259994,sub-03,05/02/2001,1: Male,15/07/2023,001,1: right,2023_Jul_15_1045,[FINAL]_fmri_multiplication,2021.2.3,59.965441436222996
block3.xlsx,,,,,,,,,,,,,,0,2,2,2,,,,,12,0,12,0,,,,,,,,,,,,,,,,,,,,,,,,,,,,,,,,,,,,,,955.5594834,955.5594834,955.5594834,955.5594834,sub-03,05/02/2001,1: Male,15/07/2023,001,1: right,2023_Jul_15_1045,[FINAL]_fmri_multiplication,2021.2.3,59.965441436222996
block3.xlsx,,,,,,,,,,,,,,0,2,2,2,,,,,13,0,13,0,,,,,,,,,,,,,,,,,,,,,,,,,,,,,,,,,,,,,,956.5596386419993,956.5596386419993,956.5596386419993,956.5596386419993,sub-03,05/02/2001,1: Male,15/07/2023,001,1: right,2023_Jul_15_1045,[FINAL]_fmri_multiplication,2021.2.3,59.965441436222996
block3.xlsx,,,,,,,,,,,,,,0,2,2,2,,,,,14,0,14,0,,,,,,,,,,,,,,,,,,,,,,,,,,,,,,,,,,,,,,957.5592439060001,957.5592439060001,957.5592439060001,957.5592439060001,sub-03,05/02/2001,1: Male,15/07/2023,001,1: right,2023_Jul_15_1045,[FINAL]_fmri_multiplication,2021.2.3,59.965441436222996
block3.xlsx,,,,,,,,,,,,,,0,2,2,2,,,,,15,0,15,0,,,,,,,,,,,,,,,,,,,,,,,,,,,,,,,,,,,,,,958.5595089579992,958.5595089579992,958.5595089579992,958.5595089579992,sub-03,05/02/2001,1: Male,15/07/2023,001,1: right,2023_Jul_15_1045,[FINAL]_fmri_multiplication,2021.2.3,59.965441436222996
block3.xlsx,,,,,,,,,,,,,,0,2,2,2,,,,,16,0,16,0,,,,,,,,,,,,,,,,,,,,,,,,,,,,,,,,,,,,,,959.5596269949992,959.5596269949992,959.5596269949992,959.5596269949992,sub-03,05/02/2001,1: Male,15/07/2023,001,1: right,2023_Jul_15_1045,[FINAL]_fmri_multiplication,2021.2.3,59.965441436222996
block3.xlsx,,,,,,,,,,,,,,0,2,2,2,,,,,17,0,17,0,,,,,,,,,,,,,,,,,,,,,,,,,,,,,,,,,,,,,,960.5610903179995,960.5610903179995,960.5610903179995,960.5610903179995,sub-03,05/02/2001,1: Male,15/07/2023,001,1: right,2023_Jul_15_1045,[FINAL]_fmri_multiplication,2021.2.3,59.965441436222996
block3.xlsx,,,,,,,,,,,,,,0,2,2,2,,,,,18,0,18,0,,,,,,,,,,,,,,,,,,,,,,,,,,,,,,,,,,,,,,961.5762097739998,None,961.5762097739998,None,sub-03,05/02/2001,1: Male,15/07/2023,001,1: right,2023_Jul_15_1045,[FINAL]_fmri_multiplication,2021.2.3,59.965441436222996
block3.xlsx,,,,,,,,,,,,,,0,2,2,2,,,,,19,0,19,0,,,,,,,,,,,,,,,,,,,,,,,,,,,,,,,,,,,,,,962.5747361379999,None,962.5747361379999,None,sub-03,05/02/2001,1: Male,15/07/2023,001,1: right,2023_Jul_15_1045,[FINAL]_fmri_multiplication,2021.2.3,59.965441436222996
block3.xlsx,,,,,,,,,,,,,,0,2,2,2,,,,,20,0,20,0,,,,,,,,,,,,,,,,,,,,,,,,,,,,,,,,,,,,,,963.5771580549999,None,963.5771580549999,None,sub-03,05/02/2001,1: Male,15/07/2023,001,1: right,2023_Jul_15_1045,[FINAL]_fmri_multiplication,2021.2.3,59.965441436222996
block3.xlsx,,,,,,,,,,,,,,0,2,2,2,,,,,21,0,21,0,,,,,,,,,,,,,,,,,,,,,,,,,,,,,,,,,,,,,,964.5770288369995,None,964.5770288369995,None,sub-03,05/02/2001,1: Male,15/07/2023,001,1: right,2023_Jul_15_1045,[FINAL]_fmri_multiplication,2021.2.3,59.965441436222996
block3.xlsx,,,,,,,,,,,,,,0,2,2,2,,,,,22,0,22,0,,,,,,,,,,,,,,,,,,,,,,,,,,,,,,,,,,,,,,965.5766037469994,None,965.5766037469994,None,sub-03,05/02/2001,1: Male,15/07/2023,001,1: right,2023_Jul_15_1045,[FINAL]_fmri_multiplication,2021.2.3,59.965441436222996
block3.xlsx,,,,,,,,,,,,,,0,2,2,2,,,,,23,0,23,0,,,,,,,,,,,,,,,,,,,,,,,,,,,,,,,,,,,,,,966.5771756119993,None,966.5771756119993,None,sub-03,05/02/2001,1: Male,15/07/2023,001,1: right,2023_Jul_15_1045,[FINAL]_fmri_multiplication,2021.2.3,59.965441436222996
block3.xlsx,,,,,,,,,,,,,,0,2,2,2,,,,,24,0,24,0,,,,,,,,,,,,,,,,,,,,,,,,,,,,,,,,,,,,,,967.5762618829995,None,967.5762618829995,None,sub-03,05/02/2001,1: Male,15/07/2023,001,1: right,2023_Jul_15_1045,[FINAL]_fmri_multiplication,2021.2.3,59.965441436222996
block3.xlsx,,,,,,,,,,,,,,0,2,2,2,,,,,25,0,25,0,,,,,,,,,,,,,,,,,,,,,,,,,,,,,,,,,,,,,,968.5751160159998,None,968.5751160159998,None,sub-03,05/02/2001,1: Male,15/07/2023,001,1: right,2023_Jul_15_1045,[FINAL]_fmri_multiplication,2021.2.3,59.965441436222996
block3.xlsx,,,,,,,,,,,,,,0,2,2,2,,,,,26,0,26,0,,,,,,,,,,,,,,,,,,,,,,,,,,,,,,,,,,,,,,969.5782315269998,None,969.5782315269998,None,sub-03,05/02/2001,1: Male,15/07/2023,001,1: right,2023_Jul_15_1045,[FINAL]_fmri_multiplication,2021.2.3,59.965441436222996
block3.xlsx,,,,,,,,,,,,,,0,2,2,2,,,,,27,0,27,0,,,,,,,,,,,,,,,,,,,,,,,,,,,,,,,,,,,,,,970.5775650189998,None,970.5775650189998,None,sub-03,05/02/2001,1: Male,15/07/2023,001,1: right,2023_Jul_15_1045,[FINAL]_fmri_multiplication,2021.2.3,59.965441436222996
block3.xlsx,,,,,,,,,,,,,,0,2,2,2,,,,,28,0,28,0,,,,,,,,,,,,,,,,,,,,,,,,,,,,,,,,,,,,,,971.576294,None,971.576294,None,sub-03,05/02/2001,1: Male,15/07/2023,001,1: right,2023_Jul_15_1045,[FINAL]_fmri_multiplication,2021.2.3,59.965441436222996
block3.xlsx,,,,,,,,,,,,,,0,2,2,2,,,,,29,0,29,0,,,,,,,,,,,,,,,,,,,,,,,,,,,,,,,,,,,,,,972.5782505399993,None,972.5782505399993,None,sub-03,05/02/2001,1: Male,15/07/2023,001,1: right,2023_Jul_15_1045,[FINAL]_fmri_multiplication,2021.2.3,59.965441436222996
block3.xlsx,,,,,,,,,,,,,,0,2,2,2,,,,,,,,,,,,,,,,,,,,,,,,,,,,,,,,,,,,,,,,,,,,,,,,,,sub-03,05/02/2001,1: Male,15/07/2023,001,1: right,2023_Jul_15_1045,[FINAL]_fmri_multiplication,2021.2.3,59.965441436222996
block4.xlsx,10,7.5,8.4,5 x 6,36,14,5 x 6 = 36,large-sized_low-interference,large-sized,low-interference,6,IncorrectRESP,d,0,3,3,3,0,0,0,0,,,,,,,,,,,,,973.5788253159999,None,983.5985873629998,None,984.0762945839997,None,986.0765814679999,None,986.8264994889996,None,987.0765827599998,None,987.0765827599998,None,d,0,0.8971962830000848,987.0765827599998,None,987.9928917269999,None,987.9928917269999,None,d,0.06881909,987.9928917269999,None,988.0931855549998,None,,,,,sub-03,05/02/2001,1: Male,15/07/2023,001,1: right,2023_Jul_15_1045,[FINAL]_fmri_multiplication,2021.2.3,59.965441436222996
block4.xlsx,25.9,7.5,2.6,6 x 2,12,6,6 x 2 = 12,small-sized_low-interference,small-sized,low-interference,3,CorrectRESP,a,0,3,3,3,0,1,1,1,,,,,,,,,,,,,,,996.4925524889995,None,996.9926799539999,None,998.9928970410001,None,999.7427966,None,999.9924825349999,None,999.9924825349999,None,a,0,0.8213407059993187,999.9924825349999,None,1000.8435860559994,None,1000.8435860559994,None,d,0.17025579100027244,1000.8435860559994,None,1001.0429581779999,None,,,,,sub-03,05/02/2001,1: Male,15/07/2023,001,1: right,2023_Jul_15_1045,[FINAL]_fmri_multiplication,2021.2.3,59.965441436222996
block4.xlsx,36,7.5,3.8,8 x 4,32,24,8 x 4 = 32,large-sized_high-interference,large-sized,high-interference,25,CorrectRESP,a,0,3,3,3,0,2,2,2,,,,,,,,,,,,,,,1003.6425038759999,None,1004.1416940559993,None,1006.1429021710001,None,1006.8930334309998,None,1007.1424791459995,None,1007.1424791459995,None,a,0,0.5752301570000782,1007.1424791459995,None,1007.7425300179993,None,1007.7425300179993,None,d,0.15118805299971427,1007.7425300179993,None,1007.9247743830001,None,,,,,sub-03,05/02/2001,1: Male,15/07/2023,001,1: right,2023_Jul_15_1045,[FINAL]_fmri_multiplication,2021.2.3,59.965441436222996
block4.xlsx,47.3,7.5,3.8,9 x 5,40,15,9 x 5 = 40,large-sized_low-interference,large-sized,low-interference,6,IncorrectRESP,d,0,3,3,3,0,3,3,3,,,,,,,,,,,,,,,1011.7257597449998,None,1012.2269579009999,None,1014.2266896129995,None,1014.9767253929995,None,1015.2270474569996,None,1015.2270474569996,None,d,0,0.5627744089997577,1015.2270474569996,None,1015.8099054869999,None,1015.8099054869999,None,d,0.035827819000587624,1015.8099054869999,None,1015.8766741669997,None,,,,,sub-03,05/02/2001,1: Male,15/07/2023,001,1: right,2023_Jul_15_1045,[FINAL]_fmri_multiplication,2021.2.3,59.965441436222996
block4.xlsx,58.6,7.5,4.4,6 x 3,18,7,6 x 3 = 18,small-sized_high-interference,small-sized,high-interference,8,CorrectRESP,a,0,3,3,3,0,4,4,4,,,,,,,,,,,,,,,1019.6767286269996,None,1020.176032,None,1022.1763862669995,None,1022.9264205129994,None,1023.176053,None,1023.176053,None,a,0,0.9337832459996207,1023.176053,None,1024.1263512759997,None,1024.1263512759997,None,d,0.20748132500011707,1024.1263512759997,None,1024.3594224379995,None,,,,,sub-03,05/02/2001,1: Male,15/07/2023,001,1: right,2023_Jul_15_1045,[FINAL]_fmri_multiplication,2021.2.3,59.965441436222996
block4.xlsx,70.5,7.5,2.6,4 x 9,32,20,4 x 9 = 32,large-sized_high-interference,large-sized,high-interference,9,IncorrectRESP,d,0,3,3,3,0,5,5,5,,,,,,,,,,,,,,,1028.759341,None,1029.2595851059996,None,1031.2597754459994,None,1032.0095359849993,None,1032.258655,None,1032.258655,None,d,0,0.6672032460000992,1032.258655,None,1032.942777,None,1032.942777,None,d,0.14290343900029256,1032.942777,None,1033.108067,None,,,,,sub-03,05/02/2001,1: Male,15/07/2023,001,1: right,2023_Jul_15_1045,[FINAL]_fmri_multiplication,2021.2.3,59.965441436222996
block4.xlsx,80.6,7.5,9.4,3 x 4,15,9,3 x 4 = 15,small-sized_high-interference,small-sized,high-interference,10,IncorrectRESP,d,0,3,3,3,0,6,6,6,,,,,,,,,,,,,,,1035.7091702009993,None,1036.2084426129995,None,1038.2095552129995,None,1038.9592628599994,None,1039.2099966819997,None,1039.2099966819997,None,d,0,0.7319835660000535,1039.2099966819997,None,1039.9603177499994,None,1039.9603177499994,None,d,0.1413881170001332,1039.9603177499994,None,1040.1259456049993,None,,,,,sub-03,05/02/2001,1: Male,15/07/2023,001,1: right,2023_Jul_15_1045,[FINAL]_fmri_multiplication,2021.2.3,59.965441436222996
block4.xlsx,97.5,7.5,6,6 x 6,36,13,6 x 6 = 36,large-sized_low-interference,large-sized,low-interference,4,CorrectRESP,a,0,3,3,3,0,7,7,7,,,,,,,,,,,,,,,1049.5267339969996,None,1050.0265899839997,None,1052.0268043239994,None,1052.776722,None,1053.027211,None,1053.027211,None,a,0,0.5546164699999281,1053.027211,None,1053.609659,None,1053.609659,None,d,0.1322120159993574,1053.609659,None,1053.7595240789997,None,,,,,sub-03,05/02/2001,1: Male,15/07/2023,001,1: right,2023_Jul_15_1045,[FINAL]_fmri_multiplication,2021.2.3,59.965441436222996
block4.xlsx,111,7.5,5.8,7 x 6,42,23,7 x 6 = 42,large-sized_high-interference,large-sized,high-interference,22,CorrectRESP,a,0,3,3,3,0,8,8,8,,,,,,,,,,,,,,,1059.7596935309994,None,1060.281386,None,1062.2762721599993,None,1063.026337,None,1063.276188,None,1063.276188,None,a,0,0.7375163890001204,1063.276188,None,1064.0414533659996,None,1064.0414533659996,None,d,0.16428608700061886,1064.0414533659996,None,1064.2258096159994,None,,,,,sub-03,05/02/2001,1: Male,15/07/2023,001,1: right,2023_Jul_15_1045,[FINAL]_fmri_multiplication,2021.2.3,59.965441436222996
block4.xlsx,124.3,7.5,3.6,6 x 4,28,10,6 x 4 = 28,small-sized_high-interference,small-sized,high-interference,12,IncorrectRESP,d,0,3,3,3,0,9,9,9,,,,,,,,,,,,,,,1070.0258268669995,None,1070.5247936319993,None,1072.526186,None,1073.2763666949995,None,1073.526485,None,1073.526485,None,d,0,0.6313600169996789,1073.526485,None,1074.1745885569999,None,1074.1745885569999,None,d,0.087093815,1074.1745885569999,None,1074.2925111569994,None,,,,,sub-03,05/02/2001,1: Male,15/07/2023,001,1: right,2023_Jul_15_1045,[FINAL]_fmri_multiplication,2021.2.3,59.965441436222996
block4.xlsx,135.4,7.5,9.3,5 x 5,30,3,5 x 5 = 30,small-sized_low-interference,small-sized,low-interference,3,IncorrectRESP,d,0,3,3,3,0,10,10,10,,,,,,,,,,,,,,,1077.8931838549997,None,1078.39278,None,1080.39324,None,1081.1411374689997,None,1081.3905106920001,None,1081.3905106920001,None,d,0,0.519347914,1081.3905106920001,None,1081.925649,None,1081.925649,None,d,0.12808480999956373,1081.925649,None,1082.076356,None,,,,,sub-03,05/02/2001,1: Male,15/07/2023,001,1: right,2023_Jul_15_1045,[FINAL]_fmri_multiplication,2021.2.3,59.965441436222996
block4.xlsx,152.2,7.5,9.8,7 x 3,21,11,7 x 3 = 21,small-sized_high-interference,small-sized,high-interference,13,CorrectRESP,a,0,3,3,3,0,11,11,11,,,,,,,,,,,,,,,1091.3766103749995,None,1091.876054,None,1093.8768552229994,None,1094.6264350000001,None,1094.8764499549998,None,1094.8764499549998,None,a,0,0.6413418659994932,1094.8764499549998,None,1095.542701,None,1095.542701,None,d,0.15103130699935718,1095.542701,None,1095.7265210899996,None,,,,,sub-03,05/02/2001,1: Male,15/07/2023,001,1: right,2023_Jul_15_1045,[FINAL]_fmri_multiplication,2021.2.3,59.965441436222996
block4.xlsx,169.5,7.5,12.8,9 x 9,72,16,9 x 9 = 72,large-sized_low-interference,large-sized,low-interference,6,IncorrectRESP,d,0,3,3,3,0,12,12,12,,,,,,,,,,,,,,,1105.5263753219997,None,1106.042054,None,1108.0430552319995,None,1108.7929958219993,None,1109.0423651649999,None,1109.0423651649999,None,d,0,1.139465661000031,1109.0423651649999,None,1110.2092293039996,None,1110.2092293039996,None,d,0.10051281599953654,1110.2092293039996,None,1110.342523,None,,,,,sub-03,05/02/2001,1: Male,15/07/2023,001,1: right,2023_Jul_15_1045,[FINAL]_fmri_multiplication,2021.2.3,59.965441436222996
block4.xlsx,189.8,7.5,8.9,4 x 4,20,4,4 x 4 = 20,small-sized_low-interference,small-sized,low-interference,5,IncorrectRESP,d,0,3,3,3,0,13,13,13,,,,,,,,,,,,,,,1123.1434624529993,None,1123.6432432519996,None,1125.6433451019993,None,1126.3930591600001,None,1126.6426125979997,None,1126.6426125979997,None,d,0,0.5232161590001851,1126.6426125979997,None,1127.1932235449995,None,1127.1932235449995,None,d,0.12455639200015867,1127.1932235449995,None,1127.3426909609998,None,,,,,sub-03,05/02/2001,1: Male,15/07/2023,001,1: right,2023_Jul_15_1045,[FINAL]_fmri_multiplication,2021.2.3,59.965441436222996
block4.xlsx,206.2,7.5,2.4,5 x 8,45,21,5 x 8 = 45,large-sized_high-interference,large-sized,high-interference,9,IncorrectRESP,d,0,3,3,3,0,14,14,14,,,,,,,,,,,,,,,1136.243009,None,1136.7425325529994,None,1138.7427936109998,None,1139.4931532849996,None,1139.7426084889994,None,1139.7426084889994,None,d,0,0.5992327,1139.7426084889994,None,1140.358221,None,1140.358221,None,d,0.11152511000000231,1140.358221,None,1140.4925198129995,None,,,,,sub-03,05/02/2001,1: Male,15/07/2023,001,1: right,2023_Jul_15_1045,[FINAL]_fmri_multiplication,2021.2.3,59.965441436222996
block4.xlsx,216.1,7.5,14,8 x 2,16,5,8 x 2 = 16,small-sized_low-interference,small-sized,low-interference,7,CorrectRESP,a,0,3,3,3,0,15,15,15,,,,,,,,,,,,,,,1142.8931471429996,None,1143.3931629479994,None,1145.4090470799993,None,1146.159227,None,1146.4096138899995,None,1146.4096138899995,None,a,0,0.6281200499997794,1146.4096138899995,None,1147.0596870079999,None,1147.0596870079999,None,d,0.16205576900028973,1147.0596870079999,None,1147.2426168429993,None,,,,,sub-03,05/02/2001,1: Male,15/07/2023,001,1: right,2023_Jul_15_1045,[FINAL]_fmri_multiplication,2021.2.3,59.965441436222996
block4.xlsx,237.6,7.5,5.2,7 x 5,35,17,7 x 5 = 35,large-sized_low-interference,large-sized,low-interference,7,CorrectRESP,a,0,3,3,3,0,16,16,16,,,,,,,,,,,,,,,1161.2430964750001,None,1161.7415483579998,None,1163.7429287489995,None,1164.4932221149993,None,1164.7426094929997,None,1164.7426094929997,None,a,0,0.5510916200000793,1164.7426094929997,None,1165.3244874289994,None,1165.3244874289994,None,d,0.24119262299973343,1165.3244874289994,None,1165.5924662979996,None,,,,,sub-03,05/02/2001,1: Male,15/07/2023,001,1: right,2023_Jul_15_1045,[FINAL]_fmri_multiplication,2021.2.3,59.965441436222996
block4.xlsx,250.3,7.5,9.6,8 x 7,63,22,8 x 7 = 63,large-sized_high-interference,large-sized,high-interference,9,IncorrectRESP,d,0,3,3,3,0,17,17,17,,,,,,,,,,,,,,,1170.7925491199994,None,1171.2929056099993,None,1173.2929835579998,None,1174.0429607259994,None,1174.2935142119995,None,1174.2935142119995,None,d,0,0.5361977240008855,1174.2935142119995,None,1174.8596484399995,None,1174.8596484399995,None,d,0.12215662200014776,1174.8596484399995,None,1175.0091854819993,None,,,,,sub-03,05/02/2001,1: Male,15/07/2023,001,1: right,2023_Jul_15_1045,[FINAL]_fmri_multiplication,2021.2.3,59.965441436222996
block4.xlsx,267.4,7.5,2.6,2 x 9,16,2,2 x 9 = 16,small-sized_low-interference,small-sized,low-interference,7,IncorrectRESP,d,0,3,3,3,0,18,18,18,,,,,,,,,,,,,,,1184.6093486149994,None,1185.1094867449992,None,1187.1072470649997,None,1187.8485305509994,None,1188.108557,None,1188.108557,None,d,0,0.6732350829997813,1188.108557,None,1188.8101039289995,None,1188.8101039289995,None,d,0.1237478020002527,1188.8101039289995,None,1188.9593594049993,None,,,,,sub-03,05/02/2001,1: Male,15/07/2023,001,1: right,2023_Jul_15_1045,[FINAL]_fmri_multiplication,2021.2.3,59.965441436222996
block4.xlsx,277.5,7.5,2.3,9 x 3,27,19,9 x 3 = 27,large-sized_high-interference,large-sized,high-interference,9,CorrectRESP,a,0,3,3,3,0,19,19,19,,,,,,,,,,,,,,,1191.5600538709996,None,1192.059838,None,1194.0589219929998,None,1194.8099593899997,None,1195.0586179759994,None,1195.0586179759994,None,a,0,0.5551741449999099,1195.0586179759994,None,1195.6426379179993,None,1195.6426379179993,None,d,0.139208186,1195.6426379179993,None,1195.8098673979994,None,,,,,sub-03,05/02/2001,1: Male,15/07/2023,001,1: right,2023_Jul_15_1045,[FINAL]_fmri_multiplication,2021.2.3,59.965441436222996
block4.xlsx,287.3,7.5,3.1,4 x 5,16,8,4 x 5 = 16,small-sized_high-interference,small-sized,high-interference,8,IncorrectRESP,d,0,3,3,3,0,20,20,20,,,,,,,,,,,,,,,1198.109805,None,1198.6092580699997,None,1200.6099504429994,None,1201.3594385719998,None,1201.6094996069996,None,1201.6094996069996,None,d,0,0.5483190800005104,1201.6094996069996,None,1202.1745688299998,None,1202.1745688299998,None,d,0.087129565,1202.1745688299998,None,1202.2930933429998,None,,,,,sub-03,05/02/2001,1: Male,15/07/2023,001,1: right,2023_Jul_15_1045,[FINAL]_fmri_multiplication,2021.2.3,59.965441436222996
block4.xlsx,297.9,7.5,2.7,7 x 7,49,18,7 x 7 = 49,large-sized_low-interference,large-sized,low-interference,7,CorrectRESP,a,0,3,3,3,0,21,21,21,,,,,,,,,,,,,,,1205.3928696869998,None,1205.8914082289994,None,1207.8929970049994,None,1208.643021,None,1208.8933279989997,None,1208.8933279989997,None,a,0,0.44042943399927026,1208.8933279989997,None,1209.359423,None,1209.359423,None,d,0.15031276199988497,1209.359423,None,1209.5263250669996,None,,,,,sub-03,05/02/2001,1: Male,15/07/2023,001,1: right,2023_Jul_15_1045,[FINAL]_fmri_multiplication,2021.2.3,59.965441436222996
block4.xlsx,308.1,7.5,4.8,7 x 2,14,1,7 x 2 = 14,small-sized_low-interference,small-sized,low-interference,4,CorrectRESP,a,0,3,3,3,0,22,22,22,,,,,,,,,,,,,,,1212.2257992759996,None,1212.7260980759993,None,1214.726339,None,1215.4759638939995,None,1215.7263701839993,None,1215.7263701839993,None,a,0,0.61546242,1215.7263701839993,None,1216.358202,None,1216.358202,None,d,0.16765309299989894,1216.358202,None,1216.5425788339999,None,,,,,sub-03,05/02/2001,1: Male,15/07/2023,001,1: right,2023_Jul_15_1045,[FINAL]_fmri_multiplication,2021.2.3,59.965441436222996
block4.xlsx,320.4,7.5,7.1,3 x 8,24,12,3 x 8 = 24,small-sized_high-interference,small-sized,high-interference,13,CorrectRESP,a,0,3,3,3,0,23,23,23,,,,,,,,,,,,,,,1221.343156,None,1221.844141,None,1223.843423,None,1224.5934305649998,None,1224.843266,None,1224.843266,None,a,0,0.6344727739997325,1224.843266,None,1225.5099969869998,None,1225.5099969869998,None,d,0.14382136200038076,1225.5099969869998,None,1225.6763355449993,None,,,,,sub-03,05/02/2001,1: Male,15/07/2023,001,1: right,2023_Jul_15_1045,[FINAL]_fmri_multiplication,2021.2.3,59.965441436222996
block4.xlsx,,,,,,,,,,,,,,0,3,3,3,,,,,0,0,0,0,,,,,,,,,,,,,,,,,,,,,,,,,,,,,,,,,,,,,,1232.7760263229993,None,1232.7760263229993,None,sub-03,05/02/2001,1: Male,15/07/2023,001,1: right,2023_Jul_15_1045,[FINAL]_fmri_multiplication,2021.2.3,59.965441436222996
block4.xlsx,,,,,,,,,,,,,,0,3,3,3,,,,,1,0,1,0,,,,,,,,,,,,,,,,,,,,,,,,,,,,,,,,,,,,,,1233.7759440339996,1233.7759440339996,1233.7759440339996,1233.7759440339996,sub-03,05/02/2001,1: Male,15/07/2023,001,1: right,2023_Jul_15_1045,[FINAL]_fmri_multiplication,2021.2.3,59.965441436222996
block4.xlsx,,,,,,,,,,,,,,0,3,3,3,,,,,2,0,2,0,,,,,,,,,,,,,,,,,,,,,,,,,,,,,,,,,,,,,,1234.7760196319996,1234.7760196319996,1234.7760196319996,1234.7760196319996,sub-03,05/02/2001,1: Male,15/07/2023,001,1: right,2023_Jul_15_1045,[FINAL]_fmri_multiplication,2021.2.3,59.965441436222996
block4.xlsx,,,,,,,,,,,,,,0,3,3,3,,,,,3,0,3,0,,,,,,,,,,,,,,,,,,,,,,,,,,,,,,,,,,,,,,1235.7764519619996,1235.7764519619996,1235.7764519619996,1235.7764519619996,sub-03,05/02/2001,1: Male,15/07/2023,001,1: right,2023_Jul_15_1045,[FINAL]_fmri_multiplication,2021.2.3,59.965441436222996
block4.xlsx,,,,,,,,,,,,,,0,3,3,3,,,,,4,0,4,0,,,,,,,,,,,,,,,,,,,,,,,,,,,,,,,,,,,,,,1236.776979,1236.776979,1236.776979,1236.776979,sub-03,05/02/2001,1: Male,15/07/2023,001,1: right,2023_Jul_15_1045,[FINAL]_fmri_multiplication,2021.2.3,59.965441436222996
block4.xlsx,,,,,,,,,,,,,,0,3,3,3,,,,,5,0,5,0,,,,,,,,,,,,,,,,,,,,,,,,,,,,,,,,,,,,,,1237.7760871719993,1237.7760871719993,1237.7760871719993,1237.7760871719993,sub-03,05/02/2001,1: Male,15/07/2023,001,1: right,2023_Jul_15_1045,[FINAL]_fmri_multiplication,2021.2.3,59.965441436222996
block4.xlsx,,,,,,,,,,,,,,0,3,3,3,,,,,6,0,6,0,,,,,,,,,,,,,,,,,,,,,,,,,,,,,,,,,,,,,,1238.7770124119997,1238.7770124119997,1238.7770124119997,1238.7770124119997,sub-03,05/02/2001,1: Male,15/07/2023,001,1: right,2023_Jul_15_1045,[FINAL]_fmri_multiplication,2021.2.3,59.965441436222996
block4.xlsx,,,,,,,,,,,,,,0,3,3,3,,,,,7,0,7,0,,,,,,,,,,,,,,,,,,,,,,,,,,,,,,,,,,,,,,1239.7767330839997,1239.7767330839997,1239.7767330839997,1239.7767330839997,sub-03,05/02/2001,1: Male,15/07/2023,001,1: right,2023_Jul_15_1045,[FINAL]_fmri_multiplication,2021.2.3,59.965441436222996
block4.xlsx,,,,,,,,,,,,,,0,3,3,3,,,,,8,0,8,0,,,,,,,,,,,,,,,,,,,,,,,,,,,,,,,,,,,,,,1240.7772675039996,1240.7772675039996,1240.7772675039996,1240.7772675039996,sub-03,05/02/2001,1: Male,15/07/2023,001,1: right,2023_Jul_15_1045,[FINAL]_fmri_multiplication,2021.2.3,59.965441436222996
block4.xlsx,,,,,,,,,,,,,,0,3,3,3,,,,,9,0,9,0,,,,,,,,,,,,,,,,,,,,,,,,,,,,,,,,,,,,,,1241.7772376209996,1241.7772376209996,1241.7772376209996,1241.7772376209996,sub-03,05/02/2001,1: Male,15/07/2023,001,1: right,2023_Jul_15_1045,[FINAL]_fmri_multiplication,2021.2.3,59.965441436222996
block4.xlsx,,,,,,,,,,,,,,0,3,3,3,,,,,10,0,10,0,,,,,,,,,,,,,,,,,,,,,,,,,,,,,,,,,,,,,,1242.7773076159992,1242.7773076159992,1242.7773076159992,1242.7773076159992,sub-03,05/02/2001,1: Male,15/07/2023,001,1: right,2023_Jul_15_1045,[FINAL]_fmri_multiplication,2021.2.3,59.965441436222996
block4.xlsx,,,,,,,,,,,,,,0,3,3,3,,,,,11,0,11,0,,,,,,,,,,,,,,,,,,,,,,,,,,,,,,,,,,,,,,1243.7774006889995,1243.7774006889995,1243.7774006889995,1243.7774006889995,sub-03,05/02/2001,1: Male,15/07/2023,001,1: right,2023_Jul_15_1045,[FINAL]_fmri_multiplication,2021.2.3,59.965441436222996
block4.xlsx,,,,,,,,,,,,,,0,3,3,3,,,,,12,0,12,0,,,,,,,,,,,,,,,,,,,,,,,,,,,,,,,,,,,,,,1244.791635,None,1244.791635,None,sub-03,05/02/2001,1: Male,15/07/2023,001,1: right,2023_Jul_15_1045,[FINAL]_fmri_multiplication,2021.2.3,59.965441436222996
block4.xlsx,,,,,,,,,,,,,,0,3,3,3,,,,,13,0,13,0,,,,,,,,,,,,,,,,,,,,,,,,,,,,,,,,,,,,,,1245.7931958469999,None,1245.7931958469999,None,sub-03,05/02/2001,1: Male,15/07/2023,001,1: right,2023_Jul_15_1045,[FINAL]_fmri_multiplication,2021.2.3,59.965441436222996
block4.xlsx,,,,,,,,,,,,,,0,3,3,3,,,,,14,0,14,0,,,,,,,,,,,,,,,,,,,,,,,,,,,,,,,,,,,,,,1246.792743,None,1246.792743,None,sub-03,05/02/2001,1: Male,15/07/2023,001,1: right,2023_Jul_15_1045,[FINAL]_fmri_multiplication,2021.2.3,59.965441436222996
block4.xlsx,,,,,,,,,,,,,,0,3,3,3,,,,,15,0,15,0,,,,,,,,,,,,,,,,,,,,,,,,,,,,,,,,,,,,,,1247.7936172129994,None,1247.7936172129994,None,sub-03,05/02/2001,1: Male,15/07/2023,001,1: right,2023_Jul_15_1045,[FINAL]_fmri_multiplication,2021.2.3,59.965441436222996
block4.xlsx,,,,,,,,,,,,,,0,3,3,3,,,,,16,0,16,0,,,,,,,,,,,,,,,,,,,,,,,,,,,,,,,,,,,,,,1248.7936393189993,None,1248.7936393189993,None,sub-03,05/02/2001,1: Male,15/07/2023,001,1: right,2023_Jul_15_1045,[FINAL]_fmri_multiplication,2021.2.3,59.965441436222996
block4.xlsx,,,,,,,,,,,,,,0,3,3,3,,,,,17,0,17,0,,,,,,,,,,,,,,,,,,,,,,,,,,,,,,,,,,,,,,1249.794213,None,1249.794213,None,sub-03,05/02/2001,1: Male,15/07/2023,001,1: right,2023_Jul_15_1045,[FINAL]_fmri_multiplication,2021.2.3,59.965441436222996
block4.xlsx,,,,,,,,,,,,,,0,3,3,3,,,,,18,0,18,0,,,,,,,,,,,,,,,,,,,,,,,,,,,,,,,,,,,,,,1250.7943225149993,None,1250.7943225149993,None,sub-03,05/02/2001,1: Male,15/07/2023,001,1: right,2023_Jul_15_1045,[FINAL]_fmri_multiplication,2021.2.3,59.965441436222996
block4.xlsx,,,,,,,,,,,,,,0,3,3,3,,,,,19,0,19,0,,,,,,,,,,,,,,,,,,,,,,,,,,,,,,,,,,,,,,1251.7942485949998,None,1251.7942485949998,None,sub-03,05/02/2001,1: Male,15/07/2023,001,1: right,2023_Jul_15_1045,[FINAL]_fmri_multiplication,2021.2.3,59.965441436222996
block4.xlsx,,,,,,,,,,,,,,0,3,3,3,,,,,20,0,20,0,,,,,,,,,,,,,,,,,,,,,,,,,,,,,,,,,,,,,,1252.7943109179996,None,1252.7943109179996,None,sub-03,05/02/2001,1: Male,15/07/2023,001,1: right,2023_Jul_15_1045,[FINAL]_fmri_multiplication,2021.2.3,59.965441436222996
block4.xlsx,,,,,,,,,,,,,,0,3,3,3,,,,,21,0,21,0,,,,,,,,,,,,,,,,,,,,,,,,,,,,,,,,,,,,,,1253.7944262349993,None,1253.7944262349993,None,sub-03,05/02/2001,1: Male,15/07/2023,001,1: right,2023_Jul_15_1045,[FINAL]_fmri_multiplication,2021.2.3,59.965441436222996
block4.xlsx,,,,,,,,,,,,,,0,3,3,3,,,,,22,0,22,0,,,,,,,,,,,,,,,,,,,,,,,,,,,,,,,,,,,,,,1254.7934239899996,None,1254.7934239899996,None,sub-03,05/02/2001,1: Male,15/07/2023,001,1: right,2023_Jul_15_1045,[FINAL]_fmri_multiplication,2021.2.3,59.965441436222996
block4.xlsx,,,,,,,,,,,,,,0,3,3,3,,,,,23,0,23,0,,,,,,,,,,,,,,,,,,,,,,,,,,,,,,,,,,,,,,1255.7940754819992,None,1255.7940754819992,None,sub-03,05/02/2001,1: Male,15/07/2023,001,1: right,2023_Jul_15_1045,[FINAL]_fmri_multiplication,2021.2.3,59.965441436222996
block4.xlsx,,,,,,,,,,,,,,0,3,3,3,,,,,24,0,24,0,,,,,,,,,,,,,,,,,,,,,,,,,,,,,,,,,,,,,,1256.7936955019995,None,1256.7936955019995,None,sub-03,05/02/2001,1: Male,15/07/2023,001,1: right,2023_Jul_15_1045,[FINAL]_fmri_multiplication,2021.2.3,59.965441436222996
block4.xlsx,,,,,,,,,,,,,,0,3,3,3,,,,,25,0,25,0,,,,,,,,,,,,,,,,,,,,,,,,,,,,,,,,,,,,,,1257.793,None,1257.793,None,sub-03,05/02/2001,1: Male,15/07/2023,001,1: right,2023_Jul_15_1045,[FINAL]_fmri_multiplication,2021.2.3,59.965441436222996
block4.xlsx,,,,,,,,,,,,,,0,3,3,3,,,,,26,0,26,0,,,,,,,,,,,,,,,,,,,,,,,,,,,,,,,,,,,,,,1258.794268,None,1258.794268,None,sub-03,05/02/2001,1: Male,15/07/2023,001,1: right,2023_Jul_15_1045,[FINAL]_fmri_multiplication,2021.2.3,59.965441436222996
block4.xlsx,,,,,,,,,,,,,,0,3,3,3,,,,,27,0,27,0,,,,,,,,,,,,,,,,,,,,,,,,,,,,,,,,,,,,,,1259.793569,None,1259.793569,None,sub-03,05/02/2001,1: Male,15/07/2023,001,1: right,2023_Jul_15_1045,[FINAL]_fmri_multiplication,2021.2.3,59.965441436222996
block4.xlsx,,,,,,,,,,,,,,0,3,3,3,,,,,28,0,28,0,,,,,,,,,,,,,,,,,,,,,,,,,,,,,,,,,,,,,,1260.794054,None,1260.794054,None,sub-03,05/02/2001,1: Male,15/07/2023,001,1: right,2023_Jul_15_1045,[FINAL]_fmri_multiplication,2021.2.3,59.965441436222996
block4.xlsx,,,,,,,,,,,,,,0,3,3,3,,,,,29,0,29,0,,,,,,,,,,,,,,,,,,,,,,,,,,,,,,,,,,,,,,1261.7931644309992,None,1261.7931644309992,None,sub-03,05/02/2001,1: Male,15/07/2023,001,1: right,2023_Jul_15_1045,[FINAL]_fmri_multiplication,2021.2.3,59.965441436222996
block4.xlsx,,,,,,,,,,,,,,0,3,3,3,,,,,,,,,,,,,,,,,,,,,,,,,,,,,,,,,,,,,,,,,,,,,,,,,,sub-03,05/02/2001,1: Male,15/07/2023,001,1: right,2023_Jul_15_1045,[FINAL]_fmri_multiplication,2021.2.3,59.965441436222996