blocks_file,start,dur,rest,mult_problemB,mult_options,stim_trial,mult_stim,type,ProblemSize,InterferenceLH,InterferenceLevel,mult_type,corrRESP,blocks_set.thisRepN,blocks_set.thisTrialN,blocks_set.thisN,blocks_set.thisIndex,TRIALS.thisRepN,TRIALS.thisTrialN,TRIALS.thisN,TRIALS.thisIndex,timer_loop.thisRepN,timer_loop.thisTrialN,timer_loop.thisN,timer_loop.thisIndex,WAIT_TEXT.started,WAIT_TEXT.stopped,scan_start_trigger.keys,scan_start_trigger.rt,scan_start_trigger.started,scan_start_trigger.stopped,MAIN_SCREEN.started,MAIN_SCREEN.stopped,Block_Text.started,Block_Text.stopped,asterisk500ms.started,asterisk500ms.stopped,mult_question_text.started,mult_question_text.stopped,equal_text.started,equal_text.stopped,blank250_text.started,blank250_text.stopped,Mult_OPTION.started,Mult_OPTION.stopped,Mult_YN.started,Mult_YN.stopped,Mult_Resp.keys,Mult_Resp.corr,Mult_Resp.rt,Mult_Resp.started,Mult_Resp.stopped,Strategy_Q.started,Strategy_Q.stopped,Strategy_Option.started,Strategy_Option.stopped,Strategy_RESP.keys,Strategy_RESP.rt,Strategy_RESP.started,Strategy_RESP.stopped,jitters.started,jitters.stopped,resting_text.started,resting_text.stopped,countdown_timer.started,countdown_timer.stopped,End_Text.started,End_Text.stopped,fixation.started,fixation.stopped,fixation_end.keys,fixation_end.rt,fixation_end.started,fixation_end.stopped,participant,Date of birth (DD/MM/YEAR),gender,Testing Date (DD/MM/YEAR),session,handedness,date,expName,psychopyVersion,frameRate
,,,,,,,,,,,,,,,,,,,,,,,,,,34.96726126000067,None,s,27.527178094998817,34.96726126000067,None,,,,,,,,,,,,,,,,,,,,,,,,,,,,,,,,,,,,,,,,,,,,sub-22,26/10/2003,2: Female,21/10/2023,002,1: right,2023_Oct_21_1229,[FINAL]_fmri_multiplication,2021.2.3,60.01531890933341
block5.xlsx,10,7.5,4.6,3 x 6,18,7,6 x 3 = 18,small-sized_high-interference,small-sized,high-interference,8,CorrectRESP,a,0,0,0,0,0,0,0,0,,,,,,,,,,,62.51452601799974,None,67.53293377199952,None,77.53644853899823,None,78.01845605600101,None,80.01448437299769,None,80.76460492600017,None,81.01553202899959,None,81.01553202899959,None,d,0,0.5190660020016367,81.01553202899959,None,81.56289809000009,None,81.56289809000009,None,d,0.17170872100177803,81.56289809000009,None,81.76399991499784,None,,,,,,,,,,,,,sub-22,26/10/2003,2: Female,21/10/2023,002,1: right,2023_Oct_21_1229,[FINAL]_fmri_multiplication,2021.2.3,60.01531890933341
block5.xlsx,22.1,7.5,7,9 x 9,72,16,9 x 9 = 72,large-sized_low-interference,large-sized,low-interference,6,IncorrectRESP,d,0,0,0,0,0,1,1,1,,,,,,,,,,,,,,,86.36485976800031,None,86.86469039800068,None,88.86406918099965,None,89.61439005,None,89.86706850300106,None,89.86706850300106,None,a,0,0.4755520689977857,89.86706850300106,None,90.36393218200101,None,90.36393218200101,None,d,0.10676785399846267,90.36393218200101,None,90.49691293999786,None,,,,,,,,,,,,,sub-22,26/10/2003,2: Female,21/10/2023,002,1: right,2023_Oct_21_1229,[FINAL]_fmri_multiplication,2021.2.3,60.01531890933341
block5.xlsx,36.6,7.5,4.4,2 x 6,12,6,6 x 2 = 12,small-sized_low-interference,small-sized,low-interference,3,CorrectRESP,a,0,0,0,0,0,2,2,2,,,,,,,,,,,,,,,97.49754623699846,None,97.99804446399867,None,99.99769951100097,None,100.7476949189986,None,100.99806603899924,None,100.99806603899924,None,d,0,0.4085059720018762,100.99806603899924,None,101.43057109899746,None,101.43057109899746,None,d,0.15203661999839824,101.43057109899746,None,101.61430777299756,None,,,,,,,,,,,,,sub-22,26/10/2003,2: Female,21/10/2023,002,1: right,2023_Oct_21_1229,[FINAL]_fmri_multiplication,2021.2.3,60.01531890933341
block5.xlsx,48.5,7.5,9.6,8 x 3,24,12,3 x 8 = 24,small-sized_high-interference,small-sized,high-interference,13,CorrectRESP,a,0,0,0,0,0,3,3,3,,,,,,,,,,,,,,,106.0145508559981,None,106.51448225100103,None,108.51476903100047,None,109.2647401,None,109.51566545999958,None,109.51566545999958,None,d,0,0.3870250469990424,109.51566545999958,None,109.93148173599911,None,109.93148173599911,None,d,0.13121842200052924,109.93148173599911,None,110.0810497780003,None,,,,,,,,,,,,,sub-22,26/10/2003,2: Female,21/10/2023,002,1: right,2023_Oct_21_1229,[FINAL]_fmri_multiplication,2021.2.3,60.01531890933341
block5.xlsx,65.6,7.5,5.4,5 x 5,30,3,5 x 5 = 30,small-sized_low-interference,small-sized,low-interference,3,IncorrectRESP,d,0,0,0,0,0,4,4,4,,,,,,,,,,,,,,,119.68099957799859,None,120.18162204799955,None,122.18133130500064,None,122.93107572900044,None,123.18264776199794,None,123.18264776199794,None,d,1,0.8319264470010239,123.18264776199794,None,124.04749313499997,None,124.04749313499997,None,d,0.2472027439980593,124.04749313499997,None,124.31388632499875,None,,,,,,,,,,,,,sub-22,26/10/2003,2: Female,21/10/2023,002,1: right,2023_Oct_21_1229,[FINAL]_fmri_multiplication,2021.2.3,60.01531890933341
block5.xlsx,78.5,7.5,7.7,3 x 9,27,19,9 x 3 = 27,large-sized_high-interference,large-sized,high-interference,9,CorrectRESP,a,0,0,0,0,0,5,5,5,,,,,,,,,,,,,,,129.71426270399752,None,130.21437127099853,None,132.21425380399887,None,132.96441580800092,None,133.21434663000036,None,133.21434663000036,None,d,0,0.3602827540016733,133.21434663000036,None,133.59726926000076,None,133.59726926000076,None,d,0.15332051500081434,133.59726926000076,None,133.78060918600022,None,,,,,,,,,,,,,sub-22,26/10/2003,2: Female,21/10/2023,002,1: right,2023_Oct_21_1229,[FINAL]_fmri_multiplication,2021.2.3,60.01531890933341
block5.xlsx,93.7,7.5,3.5,2 x 8,18,5,8 x 2 = 18,small-sized_low-interference,small-sized,low-interference,7,IncorrectRESP,d,0,0,0,0,0,6,6,6,,,,,,,,,,,,,,,141.48106138200092,None,141.98166771499746,None,143.98151760499968,None,144.73145701699832,None,144.98041209899748,None,144.98041209899748,None,a,0,0.5142296689991781,144.98041209899748,None,145.5142959629993,None,145.5142959629993,None,d,0.12441222000052221,145.5142959629993,None,145.6640268509982,None,,,,,,,,,,,,,sub-22,26/10/2003,2: Female,21/10/2023,002,1: right,2023_Oct_21_1229,[FINAL]_fmri_multiplication,2021.2.3,60.01531890933341
block5.xlsx,104.7,7.5,6.4,7 x 7,49,18,7 x 7 = 49,large-sized_low-interference,large-sized,low-interference,7,CorrectRESP,a,0,0,0,0,0,7,7,7,,,,,,,,,,,,,,,149.16466942899933,None,149.66415888799747,None,151.66404382999826,None,152.41447148599764,None,152.6635770690009,None,152.6635770690009,None,d,0,0.367118684,152.6635770690009,None,153.04792738600008,None,153.04792738600008,None,d,0.16667270900143194,153.04792738600008,None,153.24769797399858,None,,,,,,,,,,,,,sub-22,26/10/2003,2: Female,21/10/2023,002,1: right,2023_Oct_21_1229,[FINAL]_fmri_multiplication,2021.2.3,60.01531890933341
block5.xlsx,118.6,7.5,3.2,8 x 5,45,21,5 x 8 = 45,large-sized_high-interference,large-sized,high-interference,9,IncorrectRESP,d,0,0,0,0,0,8,8,8,,,,,,,,,,,,,,,159.64764916100103,None,160.14776885799802,None,162.14778093600034,None,162.89717351799845,None,163.1476145409979,None,163.1476145409979,None,a,0,0.4831622400015476,163.1476145409979,None,163.64658661999783,None,163.64658661999783,None,d,0.29599056700317306,163.64658661999783,None,163.9638792049991,None,,,,,,,,,,,,,sub-22,26/10/2003,2: Female,21/10/2023,002,1: right,2023_Oct_21_1229,[FINAL]_fmri_multiplication,2021.2.3,60.01531890933341
block5.xlsx,129.3,7.5,6.8,5 x 4,20,8,4 x 5 = 20,small-sized_high-interference,small-sized,high-interference,8,CorrectRESP,a,0,0,0,0,0,9,9,9,,,,,,,,,,,,,,,167.16391419700085,None,167.66416968499834,None,169.66424277999977,None,170.41430412000045,None,170.66409075299816,None,170.66409075299816,None,d,0,0.43861402200127486,170.66409075299816,None,171.1308294499977,None,171.1308294499977,None,d,0.17182652599876747,171.1308294499977,None,171.33060565999767,None,,,,,,,,,,,,,sub-22,26/10/2003,2: Female,21/10/2023,002,1: right,2023_Oct_21_1229,[FINAL]_fmri_multiplication,2021.2.3,60.01531890933341
block5.xlsx,143.6,7.5,5.5,6 x 5,30,14,5 x 6 = 30,large-sized_low-interference,large-sized,low-interference,6,CorrectRESP,a,0,0,0,0,0,10,10,10,,,,,,,,,,,,,,,178.13143885599857,None,178.63147155999832,None,180.63142194600005,None,181.38148042600005,None,181.6313833940003,None,181.6313833940003,None,d,0,0.40728883399788174,181.6313833940003,None,182.0645229840011,None,182.0645229840011,None,d,0.16619696199995815,182.0645229840011,None,182.2476743139996,None,,,,,,,,,,,,,sub-22,26/10/2003,2: Female,21/10/2023,002,1: right,2023_Oct_21_1229,[FINAL]_fmri_multiplication,2021.2.3,60.01531890933341
block5.xlsx,156.6,7.5,6,3 x 7,24,11,7 x 3 = 24,small-sized_high-interference,small-sized,high-interference,13,IncorrectRESP,d,0,0,0,0,0,11,11,11,,,,,,,,,,,,,,,187.74805867900068,None,188.24719455399827,None,190.24779602899798,None,190.99782977499854,None,191.24740709300022,None,191.24740709300022,None,a,0,0.535141634,191.24740709300022,None,191.81427367099968,None,191.81427367099968,None,d,0.1123218499997165,191.81427367099968,None,191.94725744500101,None,,,,,,,,,,,,,sub-22,26/10/2003,2: Female,21/10/2023,002,1: right,2023_Oct_21_1229,[FINAL]_fmri_multiplication,2021.2.3,60.01531890933341
block5.xlsx,170.1,7.5,7.1,5 x 7,40,17,7 x 5 = 40,large-sized_low-interference,large-sized,low-interference,7,IncorrectRESP,d,0,0,0,0,0,12,12,12,,,,,,,,,,,,,,,197.94789809400027,None,198.44725359400036,None,200.44726672199977,None,201.19763609399888,None,201.44814832399788,None,201.44814832399788,None,a,0,0.7905285189990536,201.44814832399788,None,202.26411075400028,None,202.26411075400028,None,d,0.14245360100176185,202.26411075400028,None,202.43108994999784,None,,,,,,,,,,,,,sub-22,26/10/2003,2: Female,21/10/2023,002,1: right,2023_Oct_21_1229,[FINAL]_fmri_multiplication,2021.2.3,60.01531890933341
block5.xlsx,184.7,7.5,5.3,4 x 6,28,10,6 x 4 = 28,small-sized_high-interference,small-sized,high-interference,12,IncorrectRESP,d,0,0,0,0,0,13,13,13,,,,,,,,,,,,,,,209.53112615400096,None,210.0312596429976,None,212.03119108600004,None,212.78714031799973,None,213.03427101600028,None,213.03427101600028,None,a,0,0.5003203189990018,213.03427101600028,None,213.56484100300077,None,213.56484100300077,None,d,0.10585824699955992,213.56484100300077,None,213.6976518599986,None,,,,,,,,,,,,,sub-22,26/10/2003,2: Female,21/10/2023,002,1: right,2023_Oct_21_1229,[FINAL]_fmri_multiplication,2021.2.3,60.01531890933341
block5.xlsx,197.5,7.5,4.2,2 x 7,14,1,7 x 2 = 14,small-sized_low-interference,small-sized,low-interference,4,CorrectRESP,a,0,0,0,0,0,14,14,14,,,,,,,,,,,,,,,218.99804723600028,None,219.49775310699988,None,221.49783501799902,None,222.2478621779992,None,222.49747313199987,None,222.49747313199987,None,d,0,0.4291239560006943,222.49747313199987,None,222.94721523399858,None,222.94721523399858,None,d,0.17147417700107326,222.94721523399858,None,223.14784864299872,None,,,,,,,,,,,,,sub-22,26/10/2003,2: Female,21/10/2023,002,1: right,2023_Oct_21_1229,[FINAL]_fmri_multiplication,2021.2.3,60.01531890933341
block5.xlsx,209.2,7.5,7.2,9 x 4,36,20,4 x 9 = 36,large-sized_high-interference,large-sized,high-interference,9,CorrectRESP,a,0,0,0,0,0,15,15,15,,,,,,,,,,,,,,,227.34812587499982,None,227.8480710219992,None,229.84752212400053,None,230.5976268689992,None,230.84741167600077,None,230.84741167600077,None,d,0,0.44724784799836925,230.84741167600077,None,231.31387284499942,None,231.31387284499942,None,d,0.17281494,231.31387284499942,None,231.51444372499827,None,,,,,,,,,,,,,sub-22,26/10/2003,2: Female,21/10/2023,002,1: right,2023_Oct_21_1229,[FINAL]_fmri_multiplication,2021.2.3,60.01531890933341
block5.xlsx,223.9,7.5,4.3,4 x 4,20,4,4 x 4 = 20,small-sized_low-interference,small-sized,low-interference,5,IncorrectRESP,d,0,0,0,0,0,16,16,16,,,,,,,,,,,,,,,238.7138316,None,239.2139014179993,None,241.21438182999918,None,241.96435411600032,None,242.21439848799855,None,242.21439848799855,None,a,0,0.49626997299856157,242.21439848799855,None,242.73056685799747,None,242.73056685799747,None,d,0.11611039799754508,242.73056685799747,None,242.86394078599915,None,,,,,,,,,,,,,sub-22,26/10/2003,2: Female,21/10/2023,002,1: right,2023_Oct_21_1229,[FINAL]_fmri_multiplication,2021.2.3,60.01531890933341
block5.xlsx,235.7,7.5,9.9,6 x 7,48,23,7 x 6 = 48,large-sized_high-interference,large-sized,high-interference,22,IncorrectRESP,d,0,0,0,0,0,17,17,17,,,,,,,,,,,,,,,247.16465353500098,None,247.66477719500108,None,249.66457437400095,None,250.41484479499923,None,250.66459287699763,None,250.66459287699763,None,a,0,0.4300988700015296,250.66459287699763,None,251.11431579000055,None,251.11431579000055,None,d,0.084264887,251.11431579000055,None,251.23140380900077,None,,,,,,,,,,,,,sub-22,26/10/2003,2: Female,21/10/2023,002,1: right,2023_Oct_21_1229,[FINAL]_fmri_multiplication,2021.2.3,60.01531890933341
block5.xlsx,253.1,7.5,3.1,9 x 2,18,2,2 x 9 = 18,small-sized_low-interference,small-sized,low-interference,7,CorrectRESP,a,0,0,0,0,0,18,18,18,,,,,,,,,,,,,,,261.13108831799764,None,261.6326526119992,None,263.64750351800103,None,264.3976151620009,None,264.64756372899865,None,264.64756372899865,None,d,0,0.38318586600144044,264.64756372899865,None,265.04782991200045,None,265.04782991200045,None,d,0.18289450800148188,265.04782991200045,None,265.24749064799835,None,,,,,,,,,,,,,sub-22,26/10/2003,2: Female,21/10/2023,002,1: right,2023_Oct_21_1229,[FINAL]_fmri_multiplication,2021.2.3,60.01531890933341
block5.xlsx,263.7,7.5,4.6,5 x 9,40,15,9 x 5 = 40,large-sized_low-interference,large-sized,low-interference,6,IncorrectRESP,d,0,0,0,0,0,19,19,19,,,,,,,,,,,,,,,268.3477172879975,None,268.84738899399963,None,270.8475117579983,None,271.5976373249978,None,271.8474834689987,None,271.8474834689987,None,a,0,0.4231441720003204,271.8474834689987,None,272.29760481300036,None,272.29760481300036,None,d,0.084977225,272.29760481300036,None,272.4138605980006,None,,,,,,,,,,,,,sub-22,26/10/2003,2: Female,21/10/2023,002,1: right,2023_Oct_21_1229,[FINAL]_fmri_multiplication,2021.2.3,60.01531890933341
block5.xlsx,275.8,7.5,3.9,7 x 8,63,22,8 x 7 = 63,large-sized_high-interference,large-sized,high-interference,9,IncorrectRESP,d,0,0,0,0,0,20,20,20,,,,,,,,,,,,,,,277.0142654099982,None,277.5143297,None,279.51410414199927,None,280.26409406899984,None,280.51474416199926,None,280.51474416199926,None,a,0,0.46784788699733326,280.51474416199926,None,281.0146109769994,None,281.0146109769994,None,d,0.088082448,281.0146109769994,None,281.13104707899765,None,,,,,,,,,,,,,sub-22,26/10/2003,2: Female,21/10/2023,002,1: right,2023_Oct_21_1229,[FINAL]_fmri_multiplication,2021.2.3,60.01531890933341
block5.xlsx,287.2,7.5,7.4,4 x 3,15,9,3 x 4 = 15,small-sized_high-interference,small-sized,high-interference,10,IncorrectRESP,d,0,0,0,0,0,21,21,21,,,,,,,,,,,,,,,285.02905713499786,None,285.5235056199999,None,287.531395,None,288.2813729829977,None,288.5315052400001,None,288.5315052400001,None,a,0,0.4431336719972023,288.5315052400001,None,288.99767382400023,None,288.99767382400023,None,d,0.080935843,288.99767382400023,None,289.09774787599963,None,,,,,,,,,,,,,sub-22,26/10/2003,2: Female,21/10/2023,002,1: right,2023_Oct_21_1229,[FINAL]_fmri_multiplication,2021.2.3,60.01531890933341
block5.xlsx,302.1,7.5,7.1,4 x 8,32,24,8 x 4 = 32,large-sized_high-interference,large-sized,high-interference,25,CorrectRESP,a,0,0,0,0,0,22,22,22,,,,,,,,,,,,,,,296.4972902849986,None,296.99767749500097,None,298.9976351410005,None,299.7478639910005,None,299.99761774500075,None,299.99761774500075,None,a,1,0.45707072,299.99761774500075,None,300.48071079299916,None,300.48071079299916,None,d,1.7179046420023951,300.48071079299916,None,302.2309825179982,None,,,,,,,,,,,,,sub-22,26/10/2003,2: Female,21/10/2023,002,1: right,2023_Oct_21_1229,[FINAL]_fmri_multiplication,2021.2.3,60.01531890933341
block5.xlsx,316.7,7.5,10.8,6 x 6,36,13,6 x 6 = 36,large-sized_low-interference,large-sized,low-interference,4,CorrectRESP,a,0,0,0,0,0,23,23,23,,,,,,,,,,,,,,,309.3306633619977,None,309.83094073699976,None,311.8310649390005,None,312.5810870319983,None,312.8311200370008,None,312.8311200370008,None,d,0,0.42358441699980176,312.8311200370008,None,313.28040956900077,None,313.28040956900077,None,d,0.16630179600178963,313.28040956900077,None,313.46439017399825,None,,,,,,,,,,,,,sub-22,26/10/2003,2: Female,21/10/2023,002,1: right,2023_Oct_21_1229,[FINAL]_fmri_multiplication,2021.2.3,60.01531890933341
block5.xlsx,,,,,,,,,,,,,,0,0,0,0,,,,,0,0,0,0,,,,,,,,,,,,,,,,,,,,,,,,,,,,,,,,,,,,,,324.2667629569987,None,324.2667629569987,None,,,,,,,,,sub-22,26/10/2003,2: Female,21/10/2023,002,1: right,2023_Oct_21_1229,[FINAL]_fmri_multiplication,2021.2.3,60.01531890933341
block5.xlsx,,,,,,,,,,,,,,0,0,0,0,,,,,1,0,1,0,,,,,,,,,,,,,,,,,,,,,,,,,,,,,,,,,,,,,,325.2837082199985,None,325.2837082199985,None,,,,,,,,,sub-22,26/10/2003,2: Female,21/10/2023,002,1: right,2023_Oct_21_1229,[FINAL]_fmri_multiplication,2021.2.3,60.01531890933341
block5.xlsx,,,,,,,,,,,,,,0,0,0,0,,,,,2,0,2,0,,,,,,,,,,,,,,,,,,,,,,,,,,,,,,,,,,,,,,326.2816794959981,None,326.2816794959981,None,,,,,,,,,sub-22,26/10/2003,2: Female,21/10/2023,002,1: right,2023_Oct_21_1229,[FINAL]_fmri_multiplication,2021.2.3,60.01531890933341
block5.xlsx,,,,,,,,,,,,,,0,0,0,0,,,,,3,0,3,0,,,,,,,,,,,,,,,,,,,,,,,,,,,,,,,,,,,,,,327.2813433179981,None,327.2813433179981,None,,,,,,,,,sub-22,26/10/2003,2: Female,21/10/2023,002,1: right,2023_Oct_21_1229,[FINAL]_fmri_multiplication,2021.2.3,60.01531890933341
block5.xlsx,,,,,,,,,,,,,,0,0,0,0,,,,,4,0,4,0,,,,,,,,,,,,,,,,,,,,,,,,,,,,,,,,,,,,,,328.2806998669985,None,328.2806998669985,None,,,,,,,,,sub-22,26/10/2003,2: Female,21/10/2023,002,1: right,2023_Oct_21_1229,[FINAL]_fmri_multiplication,2021.2.3,60.01531890933341
block5.xlsx,,,,,,,,,,,,,,0,0,0,0,,,,,5,0,5,0,,,,,,,,,,,,,,,,,,,,,,,,,,,,,,,,,,,,,,329.2822566850009,None,329.2822566850009,None,,,,,,,,,sub-22,26/10/2003,2: Female,21/10/2023,002,1: right,2023_Oct_21_1229,[FINAL]_fmri_multiplication,2021.2.3,60.01531890933341
block5.xlsx,,,,,,,,,,,,,,0,0,0,0,,,,,6,0,6,0,,,,,,,,,,,,,,,,,,,,,,,,,,,,,,,,,,,,,,330.2816840079977,None,330.2816840079977,None,,,,,,,,,sub-22,26/10/2003,2: Female,21/10/2023,002,1: right,2023_Oct_21_1229,[FINAL]_fmri_multiplication,2021.2.3,60.01531890933341
block5.xlsx,,,,,,,,,,,,,,0,0,0,0,,,,,7,0,7,0,,,,,,,,,,,,,,,,,,,,,,,,,,,,,,,,,,,,,,331.28061096500096,None,331.28061096500096,None,,,,,,,,,sub-22,26/10/2003,2: Female,21/10/2023,002,1: right,2023_Oct_21_1229,[FINAL]_fmri_multiplication,2021.2.3,60.01531890933341
block5.xlsx,,,,,,,,,,,,,,0,0,0,0,,,,,8,0,8,0,,,,,,,,,,,,,,,,,,,,,,,,,,,,,,,,,,,,,,332.2807885080001,None,332.2807885080001,None,,,,,,,,,sub-22,26/10/2003,2: Female,21/10/2023,002,1: right,2023_Oct_21_1229,[FINAL]_fmri_multiplication,2021.2.3,60.01531890933341
block5.xlsx,,,,,,,,,,,,,,0,0,0,0,,,,,9,0,9,0,,,,,,,,,,,,,,,,,,,,,,,,,,,,,,,,,,,,,,333.2833519909982,None,333.2833519909982,None,,,,,,,,,sub-22,26/10/2003,2: Female,21/10/2023,002,1: right,2023_Oct_21_1229,[FINAL]_fmri_multiplication,2021.2.3,60.01531890933341
block5.xlsx,,,,,,,,,,,,,,0,0,0,0,,,,,10,0,10,0,,,,,,,,,,,,,,,,,,,,,,,,,,,,,,,,,,,,,,334.2812349800006,None,334.2812349800006,None,,,,,,,,,sub-22,26/10/2003,2: Female,21/10/2023,002,1: right,2023_Oct_21_1229,[FINAL]_fmri_multiplication,2021.2.3,60.01531890933341
block5.xlsx,,,,,,,,,,,,,,0,0,0,0,,,,,11,0,11,0,,,,,,,,,,,,,,,,,,,,,,,,,,,,,,,,,,,,,,335.2821375,None,335.2821375,None,,,,,,,,,sub-22,26/10/2003,2: Female,21/10/2023,002,1: right,2023_Oct_21_1229,[FINAL]_fmri_multiplication,2021.2.3,60.01531890933341
block5.xlsx,,,,,,,,,,,,,,0,0,0,0,,,,,12,0,12,0,,,,,,,,,,,,,,,,,,,,,,,,,,,,,,,,,,,,,,336.2822342489999,None,336.2822342489999,None,,,,,,,,,sub-22,26/10/2003,2: Female,21/10/2023,002,1: right,2023_Oct_21_1229,[FINAL]_fmri_multiplication,2021.2.3,60.01531890933341
block5.xlsx,,,,,,,,,,,,,,0,0,0,0,,,,,13,0,13,0,,,,,,,,,,,,,,,,,,,,,,,,,,,,,,,,,,,,,,337.2817818090007,None,337.2817818090007,None,,,,,,,,,sub-22,26/10/2003,2: Female,21/10/2023,002,1: right,2023_Oct_21_1229,[FINAL]_fmri_multiplication,2021.2.3,60.01531890933341
block5.xlsx,,,,,,,,,,,,,,0,0,0,0,,,,,14,0,14,0,,,,,,,,,,,,,,,,,,,,,,,,,,,,,,,,,,,,,,338.28135841699986,None,338.28135841699986,None,,,,,,,,,sub-22,26/10/2003,2: Female,21/10/2023,002,1: right,2023_Oct_21_1229,[FINAL]_fmri_multiplication,2021.2.3,60.01531890933341
block5.xlsx,,,,,,,,,,,,,,0,0,0,0,,,,,15,0,15,0,,,,,,,,,,,,,,,,,,,,,,,,,,,,,,,,,,,,,,339.2812860720005,None,339.2812860720005,None,,,,,,,,,sub-22,26/10/2003,2: Female,21/10/2023,002,1: right,2023_Oct_21_1229,[FINAL]_fmri_multiplication,2021.2.3,60.01531890933341
block5.xlsx,,,,,,,,,,,,,,0,0,0,0,,,,,16,0,16,0,,,,,,,,,,,,,,,,,,,,,,,,,,,,,,,,,,,,,,340.2812198499996,None,340.2812198499996,None,,,,,,,,,sub-22,26/10/2003,2: Female,21/10/2023,002,1: right,2023_Oct_21_1229,[FINAL]_fmri_multiplication,2021.2.3,60.01531890933341
block5.xlsx,,,,,,,,,,,,,,0,0,0,0,,,,,17,0,17,0,,,,,,,,,,,,,,,,,,,,,,,,,,,,,,,,,,,,,,341.2807244329997,None,341.2807244329997,None,,,,,,,,,sub-22,26/10/2003,2: Female,21/10/2023,002,1: right,2023_Oct_21_1229,[FINAL]_fmri_multiplication,2021.2.3,60.01531890933341
block5.xlsx,,,,,,,,,,,,,,0,0,0,0,,,,,18,0,18,0,,,,,,,,,,,,,,,,,,,,,,,,,,,,,,,,,,,,,,342.2813445059983,None,342.2813445059983,None,,,,,,,,,sub-22,26/10/2003,2: Female,21/10/2023,002,1: right,2023_Oct_21_1229,[FINAL]_fmri_multiplication,2021.2.3,60.01531890933341
block5.xlsx,,,,,,,,,,,,,,0,0,0,0,,,,,19,0,19,0,,,,,,,,,,,,,,,,,,,,,,,,,,,,,,,,,,,,,,343.28228711599877,None,343.28228711599877,None,,,,,,,,,sub-22,26/10/2003,2: Female,21/10/2023,002,1: right,2023_Oct_21_1229,[FINAL]_fmri_multiplication,2021.2.3,60.01531890933341
block5.xlsx,,,,,,,,,,,,,,0,0,0,0,,,,,20,0,20,0,,,,,,,,,,,,,,,,,,,,,,,,,,,,,,,,,,,,,,344.28038570100034,None,344.28038570100034,None,,,,,,,,,sub-22,26/10/2003,2: Female,21/10/2023,002,1: right,2023_Oct_21_1229,[FINAL]_fmri_multiplication,2021.2.3,60.01531890933341
block5.xlsx,,,,,,,,,,,,,,0,0,0,0,,,,,21,0,21,0,,,,,,,,,,,,,,,,,,,,,,,,,,,,,,,,,,,,,,345.2813124409986,None,345.2813124409986,None,,,,,,,,,sub-22,26/10/2003,2: Female,21/10/2023,002,1: right,2023_Oct_21_1229,[FINAL]_fmri_multiplication,2021.2.3,60.01531890933341
block5.xlsx,,,,,,,,,,,,,,0,0,0,0,,,,,22,0,22,0,,,,,,,,,,,,,,,,,,,,,,,,,,,,,,,,,,,,,,346.28101946099923,None,346.28101946099923,None,,,,,,,,,sub-22,26/10/2003,2: Female,21/10/2023,002,1: right,2023_Oct_21_1229,[FINAL]_fmri_multiplication,2021.2.3,60.01531890933341
block5.xlsx,,,,,,,,,,,,,,0,0,0,0,,,,,23,0,23,0,,,,,,,,,,,,,,,,,,,,,,,,,,,,,,,,,,,,,,347.2810173209982,None,347.2810173209982,None,,,,,,,,,sub-22,26/10/2003,2: Female,21/10/2023,002,1: right,2023_Oct_21_1229,[FINAL]_fmri_multiplication,2021.2.3,60.01531890933341
block5.xlsx,,,,,,,,,,,,,,0,0,0,0,,,,,24,0,24,0,,,,,,,,,,,,,,,,,,,,,,,,,,,,,,,,,,,,,,348.2807288889999,None,348.2807288889999,None,,,,,,,,,sub-22,26/10/2003,2: Female,21/10/2023,002,1: right,2023_Oct_21_1229,[FINAL]_fmri_multiplication,2021.2.3,60.01531890933341
block5.xlsx,,,,,,,,,,,,,,0,0,0,0,,,,,25,0,25,0,,,,,,,,,,,,,,,,,,,,,,,,,,,,,,,,,,,,,,349.2811542,None,349.2811542,None,,,,,,,,,sub-22,26/10/2003,2: Female,21/10/2023,002,1: right,2023_Oct_21_1229,[FINAL]_fmri_multiplication,2021.2.3,60.01531890933341
block5.xlsx,,,,,,,,,,,,,,0,0,0,0,,,,,26,0,26,0,,,,,,,,,,,,,,,,,,,,,,,,,,,,,,,,,,,,,,350.28080773799957,None,350.28080773799957,None,,,,,,,,,sub-22,26/10/2003,2: Female,21/10/2023,002,1: right,2023_Oct_21_1229,[FINAL]_fmri_multiplication,2021.2.3,60.01531890933341
block5.xlsx,,,,,,,,,,,,,,0,0,0,0,,,,,27,0,27,0,,,,,,,,,,,,,,,,,,,,,,,,,,,,,,,,,,,,,,351.2807586349991,None,351.2807586349991,None,,,,,,,,,sub-22,26/10/2003,2: Female,21/10/2023,002,1: right,2023_Oct_21_1229,[FINAL]_fmri_multiplication,2021.2.3,60.01531890933341
block5.xlsx,,,,,,,,,,,,,,0,0,0,0,,,,,28,0,28,0,,,,,,,,,,,,,,,,,,,,,,,,,,,,,,,,,,,,,,352.2811187549996,None,352.2811187549996,None,,,,,,,,,sub-22,26/10/2003,2: Female,21/10/2023,002,1: right,2023_Oct_21_1229,[FINAL]_fmri_multiplication,2021.2.3,60.01531890933341
block5.xlsx,,,,,,,,,,,,,,0,0,0,0,,,,,29,0,29,0,,,,,,,,,,,,,,,,,,,,,,,,,,,,,,,,,,,,,,353.27469924499746,None,353.27469924499746,None,,,,,,,,,sub-22,26/10/2003,2: Female,21/10/2023,002,1: right,2023_Oct_21_1229,[FINAL]_fmri_multiplication,2021.2.3,60.01531890933341
block5.xlsx,,,,,,,,,,,,,,0,0,0,0,,,,,,,,,,,,,,,,,,,,,,,,,,,,,,,,,,,,,,,,,,,,,,,,,,,,,,,,,,sub-22,26/10/2003,2: Female,21/10/2023,002,1: right,2023_Oct_21_1229,[FINAL]_fmri_multiplication,2021.2.3,60.01531890933341
block6.xlsx,10,7.5,4.1,6 x 5,36,14,5 x 6 = 36,large-sized_low-interference,large-sized,low-interference,6,IncorrectRESP,d,0,1,1,1,0,0,0,0,,,,,,,,,,,,,354.2822076880002,None,364.30347133199757,None,364.7809249710008,None,366.78140521399837,None,367.53110702199774,None,367.7813797159979,None,367.7813797159979,None,a,0,0.745201914,367.7813797159979,None,368.5471575,None,368.5471575,None,d,0.13151157399988733,368.5471575,None,368.69699271399804,None,,,,,,,,,,,,,sub-22,26/10/2003,2: Female,21/10/2023,002,1: right,2023_Oct_21_1229,[FINAL]_fmri_multiplication,2021.2.3,60.01531890933341
block6.xlsx,21.6,7.5,7.2,2 x 6,10,6,6 x 2 = 10,small-sized_low-interference,small-sized,low-interference,3,IncorrectRESP,d,0,1,1,1,0,1,1,1,,,,,,,,,,,,,,,372.79774682399875,None,373.29778168399935,None,375.2976820779986,None,376.04748769399885,None,376.2983976030009,None,376.2983976030009,None,a,0,0.5162145639988012,376.2983976030009,None,376.84780109499843,None,376.84780109499843,None,d,0.094813698,376.84780109499843,None,376.9638926129992,None,,,,,,,,,,,,,sub-22,26/10/2003,2: Female,21/10/2023,002,1: right,2023_Oct_21_1229,[FINAL]_fmri_multiplication,2021.2.3,60.01531890933341
block6.xlsx,36.3,7.5,13.8,6 x 7,42,23,7 x 6 = 42,large-sized_high-interference,large-sized,high-interference,22,CorrectRESP,a,0,1,1,1,0,2,2,2,,,,,,,,,,,,,,,384.1643667149983,None,384.66404424699795,None,386.6643516010008,None,387.41455711699746,None,387.66445371699956,None,387.66445371699956,None,d,0,0.5421412239993515,387.66445371699956,None,388.2311480219978,None,388.2311480219978,None,d,0.15942549299870734,388.2311480219978,None,388.41437477699947,None,,,,,,,,,,,,,sub-22,26/10/2003,2: Female,21/10/2023,002,1: right,2023_Oct_21_1229,[FINAL]_fmri_multiplication,2021.2.3,60.01531890933341
block6.xlsx,57.6,7.5,3.7,3 x 7,21,11,7 x 3 = 21,small-sized_high-interference,small-sized,high-interference,13,CorrectRESP,a,0,1,1,1,0,3,3,3,,,,,,,,,,,,,,,402.21443027499845,None,402.71411838899803,None,404.7142811730009,None,405.46439772300073,None,405.7145251109978,None,405.7145251109978,None,d,0,1.1321944869996514,405.7145251109978,None,406.86417656199774,None,406.86417656199774,None,d,0.49450558700118563,406.86417656199774,None,407.38061759300035,None,,,,,,,,,,,,,sub-22,26/10/2003,2: Female,21/10/2023,002,1: right,2023_Oct_21_1229,[FINAL]_fmri_multiplication,2021.2.3,60.01531890933341
block6.xlsx,68.8,7.5,7.8,2 x 7,12,1,7 x 2 = 12,small-sized_low-interference,small-sized,low-interference,4,IncorrectRESP,d,0,1,1,1,0,4,4,4,,,,,,,,,,,,,,,411.0809297,None,411.5803704709979,None,413.5809286039985,None,414.3309864820003,None,414.58109880199845,None,414.58109880199845,None,a,0,0.8175004960030492,414.58109880199845,None,415.43070586400063,None,415.43070586400063,None,d,0.056079562000377337,415.43070586400063,None,415.51328064100016,None,,,,,,,,,,,,,sub-22,26/10/2003,2: Female,21/10/2023,002,1: right,2023_Oct_21_1229,[FINAL]_fmri_multiplication,2021.2.3,60.01531890933341
block6.xlsx,84.1,7.5,8.6,3 x 9,24,19,9 x 3 = 24,large-sized_high-interference,large-sized,high-interference,9,IncorrectRESP,d,0,1,1,1,0,5,5,5,,,,,,,,,,,,,,,423.3142295609978,None,423.8147503809996,None,425.81468418700024,None,426.5648252110004,None,426.81667313900107,None,426.81667313900107,None,a,0,0.5179093589977128,426.81667313900107,None,427.3652312890008,None,427.3652312890008,None,d,0.033371850000548875,427.3652312890008,None,427.4314253509983,None,,,,,,,,,,,,,sub-22,26/10/2003,2: Female,21/10/2023,002,1: right,2023_Oct_21_1229,[FINAL]_fmri_multiplication,2021.2.3,60.01531890933341
block6.xlsx,100.2,7.5,3.3,4 x 6,24,10,6 x 4 = 24,small-sized_high-interference,small-sized,high-interference,12,CorrectRESP,a,0,1,1,1,0,6,6,6,,,,,,,,,,,,,,,436.0310835149976,None,436.53094605599836,None,438.5310833279982,None,439.2807381,None,439.5307247399978,None,439.5307247399978,None,d,0,0.6118870419995801,439.5307247399978,None,440.1639373299986,None,440.1639373299986,None,d,0.394746275,440.1639373299986,None,440.58058724500006,None,,,,,,,,,,,,,sub-22,26/10/2003,2: Female,21/10/2023,002,1: right,2023_Oct_21_1229,[FINAL]_fmri_multiplication,2021.2.3,60.01531890933341
block6.xlsx,111,7.5,6.3,9 x 2,16,2,2 x 9 = 16,small-sized_low-interference,small-sized,low-interference,7,IncorrectRESP,d,0,1,1,1,0,7,7,7,,,,,,,,,,,,,,,443.88099796499955,None,444.38079942900004,None,446.38104108900006,None,447.13060031499845,None,447.3810506890004,None,447.3810506890004,None,a,0,0.5455368910006655,447.3810506890004,None,447.9471401109986,None,447.9471401109986,None,d,0.067472272,447.9471401109986,None,448.0472128,None,,,,,,,,,,,,,sub-22,26/10/2003,2: Female,21/10/2023,002,1: right,2023_Oct_21_1229,[FINAL]_fmri_multiplication,2021.2.3,60.01531890933341
block6.xlsx,124.8,7.5,3.1,6 x 6,30,13,6 x 6 = 30,large-sized_low-interference,large-sized,low-interference,4,IncorrectRESP,d,0,1,1,1,0,8,8,8,,,,,,,,,,,,,,,454.3473500660002,None,454.84734954799933,None,456.84762154800046,None,457.5980499699981,None,457.84806495299927,None,457.84806495299927,None,a,0,0.5505286709994834,457.84806495299927,None,458.42849163699793,None,458.42849163699793,None,d,0.050125249,458.42849163699793,None,458.5143298309995,None,,,,,,,,,,,,,sub-22,26/10/2003,2: Female,21/10/2023,002,1: right,2023_Oct_21_1229,[FINAL]_fmri_multiplication,2021.2.3,60.01531890933341
block6.xlsx,135.4,7.5,2.7,5 x 4,16,8,4 x 5 = 16,small-sized_high-interference,small-sized,high-interference,8,IncorrectRESP,d,0,1,1,1,0,9,9,9,,,,,,,,,,,,,,,461.61461901800067,None,462.1147495,None,464.11474761299905,None,464.8647317600007,None,465.11468272300044,None,465.11468272300044,None,a,0,0.6119407600017439,465.11468272300044,None,465.74751575999835,None,465.74751575999835,None,d,0.043087825000839075,465.74751575999835,None,465.81421144699925,None,,,,,,,,,,,,,sub-22,26/10/2003,2: Female,21/10/2023,002,1: right,2023_Oct_21_1229,[FINAL]_fmri_multiplication,2021.2.3,60.01531890933341
block6.xlsx,145.6,7.5,5.1,5 x 5,25,3,5 x 5 = 25,small-sized_low-interference,small-sized,low-interference,3,CorrectRESP,a,0,1,1,1,0,10,10,10,,,,,,,,,,,,,,,468.5145049649982,None,469.01425512399874,None,471.0143043,None,471.7643543039994,None,472.0142715239999,None,472.0142715239999,None,d,0,0.42438656499871286,472.0142715239999,None,472.46370999899955,None,472.46370999899955,None,d,0.1669629710013396,472.46370999899955,None,472.64724233499874,None,,,,,,,,,,,,,sub-22,26/10/2003,2: Female,21/10/2023,002,1: right,2023_Oct_21_1229,[FINAL]_fmri_multiplication,2021.2.3,60.01531890933341
block6.xlsx,158.2,7.5,2.9,7 x 7,56,18,7 x 7 = 56,large-sized_low-interference,large-sized,low-interference,7,IncorrectRESP,d,0,1,1,1,0,11,11,11,,,,,,,,,,,,,,,477.74777050600096,None,478.2474419760001,None,480.2477315,None,480.9977644040009,None,481.2478803419981,None,481.2478803419981,None,a,0,0.6547906660016451,481.2478803419981,None,481.9311373579985,None,481.9311373579985,None,d,0.059464708,481.9311373579985,None,482.0139215,None,,,,,,,,,,,,,sub-22,26/10/2003,2: Female,21/10/2023,002,1: right,2023_Oct_21_1229,[FINAL]_fmri_multiplication,2021.2.3,60.01531890933341
block6.xlsx,168.6,7.5,5.7,3 x 6,15,7,6 x 3 = 15,small-sized_high-interference,small-sized,high-interference,8,IncorrectRESP,d,0,1,1,1,0,12,12,12,,,,,,,,,,,,,,,484.9141998,None,485.41430203100026,None,487.4143295549984,None,488.16437203999885,None,488.41435071700107,None,488.41435071700107,None,a,0,0.7043403540010331,488.41435071700107,None,489.14732300299875,None,489.14732300299875,None,d,0.019284287,489.14732300299875,None,489.1972734230003,None,,,,,,,,,,,,,sub-22,26/10/2003,2: Female,21/10/2023,002,1: right,2023_Oct_21_1229,[FINAL]_fmri_multiplication,2021.2.3,60.01531890933341
block6.xlsx,181.8,7.5,3,2 x 8,16,5,8 x 2 = 16,small-sized_low-interference,small-sized,low-interference,7,CorrectRESP,a,0,1,1,1,0,13,13,13,,,,,,,,,,,,,,,494.8955177,None,495.3911829009994,None,497.39813968700037,None,498.14812536599857,None,498.39796102000037,None,498.39796102000037,None,d,0,0.48873557800106937,498.39796102000037,None,498.9147949139988,None,498.9147949139988,None,d,0.1558714599996165,498.9147949139988,None,499.0979670819979,None,,,,,,,,,,,,,sub-22,26/10/2003,2: Female,21/10/2023,002,1: right,2023_Oct_21_1229,[FINAL]_fmri_multiplication,2021.2.3,60.01531890933341
block6.xlsx,192.3,7.5,5.9,5 x 9,45,15,9 x 5 = 45,large-sized_low-interference,large-sized,low-interference,6,CorrectRESP,a,0,1,1,1,0,14,14,14,,,,,,,,,,,,,,,502.09799695199763,None,502.59754083200096,None,504.59772688500016,None,505.3478084569979,None,505.5980315409979,None,505.5980315409979,None,d,0,0.4167366409965325,505.5980315409979,None,506.03117804499925,None,506.03117804499925,None,d,0.17542390800008434,506.03117804499925,None,506.23082402100044,None,,,,,,,,,,,,,sub-22,26/10/2003,2: Female,21/10/2023,002,1: right,2023_Oct_21_1229,[FINAL]_fmri_multiplication,2021.2.3,60.01531890933341
block6.xlsx,205.7,7.5,2.1,4 x 3,12,9,3 x 4 = 12,small-sized_high-interference,small-sized,high-interference,10,CorrectRESP,a,0,1,1,1,0,15,15,15,,,,,,,,,,,,,,,512.1310290090005,None,512.6307811,None,514.6311923329995,None,515.3811008730008,None,515.6304832879978,None,515.6304832879978,None,d,0,0.40820615199845633,515.6304832879978,None,516.0640481,None,516.0640481,None,d,0.1586519269985729,516.0640481,None,516.2474886639975,None,,,,,,,,,,,,,sub-22,26/10/2003,2: Female,21/10/2023,002,1: right,2023_Oct_21_1229,[FINAL]_fmri_multiplication,2021.2.3,60.01531890933341
block6.xlsx,215.3,7.5,9.9,7 x 8,56,22,8 x 7 = 56,large-sized_high-interference,large-sized,high-interference,9,CorrectRESP,a,0,1,1,1,0,16,16,16,,,,,,,,,,,,,,,518.3477176779998,None,518.8475839099992,None,520.8478233799979,None,521.5978136800004,None,521.8476695,None,521.8476695,None,d,0,0.42311398099991493,521.8476695,None,522.2969905959981,None,522.2969905959981,None,d,0.15764792499976465,522.2969905959981,None,522.4804117809981,None,,,,,,,,,,,,,sub-22,26/10/2003,2: Female,21/10/2023,002,1: right,2023_Oct_21_1229,[FINAL]_fmri_multiplication,2021.2.3,60.01531890933341
block6.xlsx,232.7,7.5,2.2,8 x 3,21,12,3 x 8 = 21,small-sized_high-interference,small-sized,high-interference,13,IncorrectRESP,d,0,1,1,1,0,17,17,17,,,,,,,,,,,,,,,532.3810062409975,None,532.8814520609994,None,534.8814755809981,None,535.6310295,None,535.8822200190007,None,535.8822200190007,None,a,0,0.55641158,535.8822200190007,None,536.4635998829981,None,536.4635998829981,None,d,0.055096126001444645,536.4635998829981,None,536.5480471330011,None,,,,,,,,,,,,,sub-22,26/10/2003,2: Female,21/10/2023,002,1: right,2023_Oct_21_1229,[FINAL]_fmri_multiplication,2021.2.3,60.01531890933341
block6.xlsx,242.4,7.5,7.9,9 x 9,81,16,9 x 9 = 81,large-sized_low-interference,large-sized,low-interference,6,CorrectRESP,a,0,1,1,1,0,18,18,18,,,,,,,,,,,,,,,538.7478405779984,None,539.2471855629992,None,541.2478211,None,541.9979665179999,None,542.2473288,None,542.2473288,None,d,0,0.43137630999990506,542.2473288,None,542.6968736179988,None,542.6968736179988,None,d,0.16580947000329616,542.6968736179988,None,542.8805843230002,None,,,,,,,,,,,,,sub-22,26/10/2003,2: Female,21/10/2023,002,1: right,2023_Oct_21_1229,[FINAL]_fmri_multiplication,2021.2.3,60.01531890933341
block6.xlsx,257.8,7.5,8.3,9 x 4,32,20,4 x 9 = 32,large-sized_high-interference,large-sized,high-interference,9,IncorrectRESP,d,0,1,1,1,0,19,19,19,,,,,,,,,,,,,,,550.7804316069996,None,551.2806433990008,None,553.2810119669994,None,554.0308201849984,None,554.2807799,None,554.2807799,None,a,0,0.6458770520002872,554.2807799,None,554.9473610589994,None,554.9473610589994,None,d,0.06724366,554.9473610589994,None,555.0476979890009,None,,,,,,,,,,,,,sub-22,26/10/2003,2: Female,21/10/2023,002,1: right,2023_Oct_21_1229,[FINAL]_fmri_multiplication,2021.2.3,60.01531890933341
block6.xlsx,273.6,7.5,12.1,5 x 7,35,17,7 x 5 = 35,large-sized_low-interference,large-sized,low-interference,7,CorrectRESP,a,0,1,1,1,0,20,20,20,,,,,,,,,,,,,,,563.3479084339997,None,563.8543533459997,None,565.8645226749977,None,566.614842,None,566.8653071959998,None,566.8653071959998,None,d,0,0.373384338,566.8653071959998,None,567.2640054170006,None,567.2640054170006,None,d,0.15869122299773153,567.2640054170006,None,567.4476924269984,None,,,,,,,,,,,,,sub-22,26/10/2003,2: Female,21/10/2023,002,1: right,2023_Oct_21_1229,[FINAL]_fmri_multiplication,2021.2.3,60.01531890933341
block6.xlsx,293.2,7.5,4.1,4 x 8,28,24,8 x 4 = 28,large-sized_high-interference,large-sized,high-interference,25,IncorrectRESP,d,0,1,1,1,0,21,21,21,,,,,,,,,,,,,,,579.5473003039988,None,580.0485484,None,582.0477011059993,None,582.7977113009983,None,583.0476502189995,None,583.0476502189995,None,a,0,0.7189275439995981,583.0476502189995,None,583.7975771439997,None,583.7975771439997,None,d,0.049101568,583.7975771439997,None,583.8638791739977,None,,,,,,,,,,,,,sub-22,26/10/2003,2: Female,21/10/2023,002,1: right,2023_Oct_21_1229,[FINAL]_fmri_multiplication,2021.2.3,60.01531890933341
block6.xlsx,304.8,7.5,6.7,4 x 4,16,4,4 x 4 = 16,small-sized_low-interference,small-sized,low-interference,5,CorrectRESP,a,0,1,1,1,0,22,22,22,,,,,,,,,,,,,,,587.9638559,None,588.4638625279986,None,590.4639323980009,None,591.2145682080009,None,591.4640386379979,None,591.4640386379979,None,d,0,0.4146693699985917,591.4640386379979,None,591.8972126,None,591.8972126,None,d,0.16549714900247636,591.8972126,None,592.0805326009977,None,,,,,,,,,,,,,sub-22,26/10/2003,2: Female,21/10/2023,002,1: right,2023_Oct_21_1229,[FINAL]_fmri_multiplication,2021.2.3,60.01531890933341
block6.xlsx,319,7.5,8.5,8 x 5,40,21,5 x 8 = 40,large-sized_high-interference,large-sized,high-interference,9,CorrectRESP,a,0,1,1,1,0,23,23,23,,,,,,,,,,,,,,,598.7814931229987,None,599.2792752620007,None,601.2814250699994,None,602.0481312119991,None,602.2982029470004,None,602.2982029470004,None,d,0,0.404482571,602.2982029470004,None,602.7315232869987,None,602.7315232869987,None,d,0.16318477899767458,602.7315232869987,None,602.9142664089995,None,,,,,,,,,,,,,sub-22,26/10/2003,2: Female,21/10/2023,002,1: right,2023_Oct_21_1229,[FINAL]_fmri_multiplication,2021.2.3,60.01531890933341
block6.xlsx,,,,,,,,,,,,,,0,1,1,1,,,,,0,0,0,0,,,,,,,,,,,,,,,,,,,,,,,,,,,,,,,,,,,,,,611.417332,None,611.417332,None,,,,,,,,,sub-22,26/10/2003,2: Female,21/10/2023,002,1: right,2023_Oct_21_1229,[FINAL]_fmri_multiplication,2021.2.3,60.01531890933341
block6.xlsx,,,,,,,,,,,,,,0,1,1,1,,,,,1,0,1,0,,,,,,,,,,,,,,,,,,,,,,,,,,,,,,,,,,,,,,612.4314831929987,None,612.4314831929987,None,,,,,,,,,sub-22,26/10/2003,2: Female,21/10/2023,002,1: right,2023_Oct_21_1229,[FINAL]_fmri_multiplication,2021.2.3,60.01531890933341
block6.xlsx,,,,,,,,,,,,,,0,1,1,1,,,,,2,0,2,0,,,,,,,,,,,,,,,,,,,,,,,,,,,,,,,,,,,,,,613.4305445940008,None,613.4305445940008,None,,,,,,,,,sub-22,26/10/2003,2: Female,21/10/2023,002,1: right,2023_Oct_21_1229,[FINAL]_fmri_multiplication,2021.2.3,60.01531890933341
block6.xlsx,,,,,,,,,,,,,,0,1,1,1,,,,,3,0,3,0,,,,,,,,,,,,,,,,,,,,,,,,,,,,,,,,,,,,,,614.4312131929983,None,614.4312131929983,None,,,,,,,,,sub-22,26/10/2003,2: Female,21/10/2023,002,1: right,2023_Oct_21_1229,[FINAL]_fmri_multiplication,2021.2.3,60.01531890933341
block6.xlsx,,,,,,,,,,,,,,0,1,1,1,,,,,4,0,4,0,,,,,,,,,,,,,,,,,,,,,,,,,,,,,,,,,,,,,,615.4314705670004,None,615.4314705670004,None,,,,,,,,,sub-22,26/10/2003,2: Female,21/10/2023,002,1: right,2023_Oct_21_1229,[FINAL]_fmri_multiplication,2021.2.3,60.01531890933341
block6.xlsx,,,,,,,,,,,,,,0,1,1,1,,,,,5,0,5,0,,,,,,,,,,,,,,,,,,,,,,,,,,,,,,,,,,,,,,616.4327115630003,None,616.4327115630003,None,,,,,,,,,sub-22,26/10/2003,2: Female,21/10/2023,002,1: right,2023_Oct_21_1229,[FINAL]_fmri_multiplication,2021.2.3,60.01531890933341
block6.xlsx,,,,,,,,,,,,,,0,1,1,1,,,,,6,0,6,0,,,,,,,,,,,,,,,,,,,,,,,,,,,,,,,,,,,,,,617.4315653150006,None,617.4315653150006,None,,,,,,,,,sub-22,26/10/2003,2: Female,21/10/2023,002,1: right,2023_Oct_21_1229,[FINAL]_fmri_multiplication,2021.2.3,60.01531890933341
block6.xlsx,,,,,,,,,,,,,,0,1,1,1,,,,,7,0,7,0,,,,,,,,,,,,,,,,,,,,,,,,,,,,,,,,,,,,,,618.4310810989991,None,618.4310810989991,None,,,,,,,,,sub-22,26/10/2003,2: Female,21/10/2023,002,1: right,2023_Oct_21_1229,[FINAL]_fmri_multiplication,2021.2.3,60.01531890933341
block6.xlsx,,,,,,,,,,,,,,0,1,1,1,,,,,8,0,8,0,,,,,,,,,,,,,,,,,,,,,,,,,,,,,,,,,,,,,,619.4316554389989,None,619.4316554389989,None,,,,,,,,,sub-22,26/10/2003,2: Female,21/10/2023,002,1: right,2023_Oct_21_1229,[FINAL]_fmri_multiplication,2021.2.3,60.01531890933341
block6.xlsx,,,,,,,,,,,,,,0,1,1,1,,,,,9,0,9,0,,,,,,,,,,,,,,,,,,,,,,,,,,,,,,,,,,,,,,620.4312049330001,None,620.4312049330001,None,,,,,,,,,sub-22,26/10/2003,2: Female,21/10/2023,002,1: right,2023_Oct_21_1229,[FINAL]_fmri_multiplication,2021.2.3,60.01531890933341
block6.xlsx,,,,,,,,,,,,,,0,1,1,1,,,,,10,0,10,0,,,,,,,,,,,,,,,,,,,,,,,,,,,,,,,,,,,,,,621.4307355249985,None,621.4307355249985,None,,,,,,,,,sub-22,26/10/2003,2: Female,21/10/2023,002,1: right,2023_Oct_21_1229,[FINAL]_fmri_multiplication,2021.2.3,60.01531890933341
block6.xlsx,,,,,,,,,,,,,,0,1,1,1,,,,,11,0,11,0,,,,,,,,,,,,,,,,,,,,,,,,,,,,,,,,,,,,,,622.4313492049987,None,622.4313492049987,None,,,,,,,,,sub-22,26/10/2003,2: Female,21/10/2023,002,1: right,2023_Oct_21_1229,[FINAL]_fmri_multiplication,2021.2.3,60.01531890933341
block6.xlsx,,,,,,,,,,,,,,0,1,1,1,,,,,12,0,12,0,,,,,,,,,,,,,,,,,,,,,,,,,,,,,,,,,,,,,,623.4308069129984,None,623.4308069129984,None,,,,,,,,,sub-22,26/10/2003,2: Female,21/10/2023,002,1: right,2023_Oct_21_1229,[FINAL]_fmri_multiplication,2021.2.3,60.01531890933341
block6.xlsx,,,,,,,,,,,,,,0,1,1,1,,,,,13,0,13,0,,,,,,,,,,,,,,,,,,,,,,,,,,,,,,,,,,,,,,624.4309462079982,None,624.4309462079982,None,,,,,,,,,sub-22,26/10/2003,2: Female,21/10/2023,002,1: right,2023_Oct_21_1229,[FINAL]_fmri_multiplication,2021.2.3,60.01531890933341
block6.xlsx,,,,,,,,,,,,,,0,1,1,1,,,,,14,0,14,0,,,,,,,,,,,,,,,,,,,,,,,,,,,,,,,,,,,,,,625.4309322419977,None,625.4309322419977,None,,,,,,,,,sub-22,26/10/2003,2: Female,21/10/2023,002,1: right,2023_Oct_21_1229,[FINAL]_fmri_multiplication,2021.2.3,60.01531890933341
block6.xlsx,,,,,,,,,,,,,,0,1,1,1,,,,,15,0,15,0,,,,,,,,,,,,,,,,,,,,,,,,,,,,,,,,,,,,,,626.431244,None,626.431244,None,,,,,,,,,sub-22,26/10/2003,2: Female,21/10/2023,002,1: right,2023_Oct_21_1229,[FINAL]_fmri_multiplication,2021.2.3,60.01531890933341
block6.xlsx,,,,,,,,,,,,,,0,1,1,1,,,,,16,0,16,0,,,,,,,,,,,,,,,,,,,,,,,,,,,,,,,,,,,,,,627.4309480619995,None,627.4309480619995,None,,,,,,,,,sub-22,26/10/2003,2: Female,21/10/2023,002,1: right,2023_Oct_21_1229,[FINAL]_fmri_multiplication,2021.2.3,60.01531890933341
block6.xlsx,,,,,,,,,,,,,,0,1,1,1,,,,,17,0,17,0,,,,,,,,,,,,,,,,,,,,,,,,,,,,,,,,,,,,,,628.4309744540005,None,628.4309744540005,None,,,,,,,,,sub-22,26/10/2003,2: Female,21/10/2023,002,1: right,2023_Oct_21_1229,[FINAL]_fmri_multiplication,2021.2.3,60.01531890933341
block6.xlsx,,,,,,,,,,,,,,0,1,1,1,,,,,18,0,18,0,,,,,,,,,,,,,,,,,,,,,,,,,,,,,,,,,,,,,,629.4315246999977,None,629.4315246999977,None,,,,,,,,,sub-22,26/10/2003,2: Female,21/10/2023,002,1: right,2023_Oct_21_1229,[FINAL]_fmri_multiplication,2021.2.3,60.01531890933341
block6.xlsx,,,,,,,,,,,,,,0,1,1,1,,,,,19,0,19,0,,,,,,,,,,,,,,,,,,,,,,,,,,,,,,,,,,,,,,630.4312784119975,None,630.4312784119975,None,,,,,,,,,sub-22,26/10/2003,2: Female,21/10/2023,002,1: right,2023_Oct_21_1229,[FINAL]_fmri_multiplication,2021.2.3,60.01531890933341
block6.xlsx,,,,,,,,,,,,,,0,1,1,1,,,,,20,0,20,0,,,,,,,,,,,,,,,,,,,,,,,,,,,,,,,,,,,,,,631.4308051869994,None,631.4308051869994,None,,,,,,,,,sub-22,26/10/2003,2: Female,21/10/2023,002,1: right,2023_Oct_21_1229,[FINAL]_fmri_multiplication,2021.2.3,60.01531890933341
block6.xlsx,,,,,,,,,,,,,,0,1,1,1,,,,,21,0,21,0,,,,,,,,,,,,,,,,,,,,,,,,,,,,,,,,,,,,,,632.4312422919975,None,632.4312422919975,None,,,,,,,,,sub-22,26/10/2003,2: Female,21/10/2023,002,1: right,2023_Oct_21_1229,[FINAL]_fmri_multiplication,2021.2.3,60.01531890933341
block6.xlsx,,,,,,,,,,,,,,0,1,1,1,,,,,22,0,22,0,,,,,,,,,,,,,,,,,,,,,,,,,,,,,,,,,,,,,,633.4324666520006,None,633.4324666520006,None,,,,,,,,,sub-22,26/10/2003,2: Female,21/10/2023,002,1: right,2023_Oct_21_1229,[FINAL]_fmri_multiplication,2021.2.3,60.01531890933341
block6.xlsx,,,,,,,,,,,,,,0,1,1,1,,,,,23,0,23,0,,,,,,,,,,,,,,,,,,,,,,,,,,,,,,,,,,,,,,634.4257049679982,None,634.4257049679982,None,,,,,,,,,sub-22,26/10/2003,2: Female,21/10/2023,002,1: right,2023_Oct_21_1229,[FINAL]_fmri_multiplication,2021.2.3,60.01531890933341
block6.xlsx,,,,,,,,,,,,,,0,1,1,1,,,,,24,0,24,0,,,,,,,,,,,,,,,,,,,,,,,,,,,,,,,,,,,,,,635.4320390489993,None,635.4320390489993,None,,,,,,,,,sub-22,26/10/2003,2: Female,21/10/2023,002,1: right,2023_Oct_21_1229,[FINAL]_fmri_multiplication,2021.2.3,60.01531890933341
block6.xlsx,,,,,,,,,,,,,,0,1,1,1,,,,,25,0,25,0,,,,,,,,,,,,,,,,,,,,,,,,,,,,,,,,,,,,,,636.4317180489998,None,636.4317180489998,None,,,,,,,,,sub-22,26/10/2003,2: Female,21/10/2023,002,1: right,2023_Oct_21_1229,[FINAL]_fmri_multiplication,2021.2.3,60.01531890933341
block6.xlsx,,,,,,,,,,,,,,0,1,1,1,,,,,26,0,26,0,,,,,,,,,,,,,,,,,,,,,,,,,,,,,,,,,,,,,,637.4313186189975,None,637.4313186189975,None,,,,,,,,,sub-22,26/10/2003,2: Female,21/10/2023,002,1: right,2023_Oct_21_1229,[FINAL]_fmri_multiplication,2021.2.3,60.01531890933341
block6.xlsx,,,,,,,,,,,,,,0,1,1,1,,,,,27,0,27,0,,,,,,,,,,,,,,,,,,,,,,,,,,,,,,,,,,,,,,638.4314188,None,638.4314188,None,,,,,,,,,sub-22,26/10/2003,2: Female,21/10/2023,002,1: right,2023_Oct_21_1229,[FINAL]_fmri_multiplication,2021.2.3,60.01531890933341
block6.xlsx,,,,,,,,,,,,,,0,1,1,1,,,,,28,0,28,0,,,,,,,,,,,,,,,,,,,,,,,,,,,,,,,,,,,,,,639.4315520489981,None,639.4315520489981,None,,,,,,,,,sub-22,26/10/2003,2: Female,21/10/2023,002,1: right,2023_Oct_21_1229,[FINAL]_fmri_multiplication,2021.2.3,60.01531890933341
block6.xlsx,,,,,,,,,,,,,,0,1,1,1,,,,,29,0,29,0,,,,,,,,,,,,,,,,,,,,,,,,,,,,,,,,,,,,,,640.4309022089983,None,640.4309022089983,None,,,,,,,,,sub-22,26/10/2003,2: Female,21/10/2023,002,1: right,2023_Oct_21_1229,[FINAL]_fmri_multiplication,2021.2.3,60.01531890933341
block6.xlsx,,,,,,,,,,,,,,0,1,1,1,,,,,,,,,,,,,,,,,,,,,,,,,,,,,,,,,,,,,,,,,,,,,,,,,,,,,,,,,,sub-22,26/10/2003,2: Female,21/10/2023,002,1: right,2023_Oct_21_1229,[FINAL]_fmri_multiplication,2021.2.3,60.01531890933341
block7.xlsx,10,7.5,4,2 x 7,14,1,7 x 2 = 14,small-sized_low-interference,small-sized,low-interference,4,CorrectRESP,a,0,2,2,2,0,0,0,0,,,,,,,,,,,,,641.4345872589984,None,651.4532561519991,None,651.9313267439975,None,653.9311941480009,None,654.6811928,None,654.9309999,None,654.9309999,None,d,0,0.45161003500106744,654.9309999,None,655.4148413619987,None,655.4148413619987,None,d,0.15174358999865944,655.4148413619987,None,655.5978590249979,None,,,,,,,,,,,,,sub-22,26/10/2003,2: Female,21/10/2023,002,1: right,2023_Oct_21_1229,[FINAL]_fmri_multiplication,2021.2.3,60.01531890933341
block7.xlsx,21.5,7.5,14.2,3 x 6,15,7,6 x 3 = 15,small-sized_high-interference,small-sized,high-interference,8,IncorrectRESP,d,0,2,2,2,0,1,1,1,,,,,,,,,,,,,,,659.5973465269999,None,660.0976478589982,None,662.0977002969994,None,662.8476788339976,None,663.0972143769977,None,663.0972143769977,None,a,0,0.5974732460017549,663.0972143769977,None,663.7139192909999,None,663.7139192909999,None,d,0.092680761,663.7139192909999,None,663.8306984439987,None,,,,,,,,,,,,,sub-22,26/10/2003,2: Female,21/10/2023,002,1: right,2023_Oct_21_1229,[FINAL]_fmri_multiplication,2021.2.3,60.01531890933341
block7.xlsx,43.2,7.5,5.1,2 x 7,12,1,7 x 2 = 12,small-sized_low-interference,small-sized,low-interference,4,IncorrectRESP,d,0,2,2,2,0,2,2,2,,,,,,,,,,,,,,,678.0313560579998,None,678.5309642289976,None,680.5310464149989,None,681.2809982719991,None,681.5310961219984,None,681.5310961219984,None,a,0,0.6595072179989074,681.5310961219984,None,682.2141036289977,None,682.2141036289977,None,d,0.080593019,682.2141036289977,None,682.3133259589995,None,,,,,,,,,,,,,sub-22,26/10/2003,2: Female,21/10/2023,002,1: right,2023_Oct_21_1229,[FINAL]_fmri_multiplication,2021.2.3,60.01531890933341
block7.xlsx,55.8,7.5,3.4,5 x 9,40,15,9 x 5 = 40,large-sized_low-interference,large-sized,low-interference,6,IncorrectRESP,d,0,2,2,2,0,3,3,3,,,,,,,,,,,,,,,687.4146986089982,None,687.9142111420006,None,689.9142527119984,None,690.6641424,None,690.9144319219995,None,690.9144319219995,None,a,0,0.5162887939986831,690.9144319219995,None,691.4471000070007,None,691.4471000070007,None,d,0.07155768,691.4471000070007,None,691.5477710880004,None,,,,,,,,,,,,,sub-22,26/10/2003,2: Female,21/10/2023,002,1: right,2023_Oct_21_1229,[FINAL]_fmri_multiplication,2021.2.3,60.01531890933341
block7.xlsx,66.7,7.5,2.9,5 x 5,30,3,5 x 5 = 30,small-sized_low-interference,small-sized,low-interference,3,IncorrectRESP,d,0,2,2,2,0,4,4,4,,,,,,,,,,,,,,,694.9472789440006,None,695.4473843039996,None,697.4475443939991,None,698.1977116859998,None,698.4477419299983,None,698.4477419299983,None,d,1,0.8309457620016474,698.4477419299983,None,699.2977416760004,None,699.2977416760004,None,None,,699.2977416760004,None,701.2978163730004,None,,,,,,,,,,,,,sub-22,26/10/2003,2: Female,21/10/2023,002,1: right,2023_Oct_21_1229,[FINAL]_fmri_multiplication,2021.2.3,60.01531890933341
block7.xlsx,77.1,7.5,13.9,5 x 7,40,17,7 x 5 = 40,large-sized_low-interference,large-sized,low-interference,7,IncorrectRESP,d,0,2,2,2,0,5,5,5,,,,,,,,,,,,,,,704.1980965410003,None,704.7121020249979,None,706.7147723800008,None,707.4647651369996,None,707.7148407669993,None,707.7148407669993,None,a,0,1.1398594270031026,707.7148407669993,None,708.8812773030004,None,708.8812773030004,None,d,0.12531475300056627,708.8812773030004,None,709.0313933849975,None,,,,,,,,,,,,,sub-22,26/10/2003,2: Female,21/10/2023,002,1: right,2023_Oct_21_1229,[FINAL]_fmri_multiplication,2021.2.3,60.01531890933341
block7.xlsx,98.5,7.5,2.6,2 x 8,16,5,8 x 2 = 16,small-sized_low-interference,small-sized,low-interference,7,CorrectRESP,a,0,2,2,2,0,6,6,6,,,,,,,,,,,,,,,722.9310023910002,None,723.4308329159976,None,725.4310572729992,None,726.1806230049988,None,726.4308780110005,None,726.4308780110005,None,d,0,0.4317928429991298,726.4308780110005,None,726.8806790189992,None,726.8806790189992,None,d,0.4940256119989499,726.8806790189992,None,727.3971683659984,None,,,,,,,,,,,,,sub-22,26/10/2003,2: Female,21/10/2023,002,1: right,2023_Oct_21_1229,[FINAL]_fmri_multiplication,2021.2.3,60.01531890933341
block7.xlsx,108.6,7.5,11.6,3 x 6,18,7,6 x 3 = 18,small-sized_high-interference,small-sized,high-interference,8,CorrectRESP,a,0,2,2,2,0,7,7,7,,,,,,,,,,,,,,,729.997276,None,730.4978713029996,None,732.4976590049992,None,733.2474754750001,None,733.4974730549984,None,733.4974730549984,None,d,0,0.46909490799953346,733.4974730549984,None,733.9983273779981,None,733.9983273779981,None,d,0.1922490659999312,733.9983273779981,None,734.2121522,None,,,,,,,,,,,,,sub-22,26/10/2003,2: Female,21/10/2023,002,1: right,2023_Oct_21_1229,[FINAL]_fmri_multiplication,2021.2.3,60.01531890933341
block7.xlsx,127.7,7.5,5,5 x 5,25,3,5 x 5 = 25,small-sized_low-interference,small-sized,low-interference,3,CorrectRESP,a,0,2,2,2,0,8,8,8,,,,,,,,,,,,,,,745.8147791,None,746.3145843790007,None,748.3145651089981,None,749.0643801859987,None,749.3144822209979,None,749.3144822209979,None,d,0,0.43610730299769784,749.3144822209979,None,749.7805093,None,749.7805093,None,d,0.170085089,749.7805093,None,749.9811888559998,None,,,,,,,,,,,,,sub-22,26/10/2003,2: Female,21/10/2023,002,1: right,2023_Oct_21_1229,[FINAL]_fmri_multiplication,2021.2.3,60.01531890933341
block7.xlsx,140.2,7.5,2.8,6 x 6,36,13,6 x 6 = 36,large-sized_low-interference,large-sized,low-interference,4,CorrectRESP,a,0,2,2,2,0,9,9,9,,,,,,,,,,,,,,,754.9810488459989,None,755.4814707379992,None,757.4810097959999,None,758.2309835119995,None,758.480573,None,758.480573,None,d,0,0.5019641899998533,758.480573,None,759.0144549059987,None,759.0144549059987,None,d,0.16015884799708147,759.0144549059987,None,759.1969049,None,,,,,,,,,,,,,sub-22,26/10/2003,2: Female,21/10/2023,002,1: right,2023_Oct_21_1229,[FINAL]_fmri_multiplication,2021.2.3,60.01531890933341
block7.xlsx,150.5,7.5,2,3 x 7,21,11,7 x 3 = 21,small-sized_high-interference,small-sized,high-interference,13,CorrectRESP,a,0,2,2,2,0,10,10,10,,,,,,,,,,,,,,,761.9973063149992,None,762.4977020769984,None,764.4976794670001,None,765.2462014720004,None,765.4975967589999,None,765.4975967589999,None,d,0,0.46109863799938466,765.4975967589999,None,765.9808686739998,None,765.9808686739998,None,d,0.18574500400063698,765.9808686739998,None,766.1973246230009,None,,,,,,,,,,,,,sub-22,26/10/2003,2: Female,21/10/2023,002,1: right,2023_Oct_21_1229,[FINAL]_fmri_multiplication,2021.2.3,60.01531890933341
block7.xlsx,160,7.5,2.7,6 x 7,48,23,7 x 6 = 48,large-sized_high-interference,large-sized,high-interference,22,IncorrectRESP,d,0,2,2,2,0,11,11,11,,,,,,,,,,,,,,,768.1972679669998,None,768.6972518369985,None,770.6977362439975,None,771.4478185490007,None,771.6978786239997,None,771.6978786239997,None,a,0,0.5568094179980108,771.6978786239997,None,772.2808700329988,None,772.2808700329988,None,d,0.1738251,772.2808700329988,None,772.4807949349997,None,,,,,,,,,,,,,sub-22,26/10/2003,2: Female,21/10/2023,002,1: right,2023_Oct_21_1229,[FINAL]_fmri_multiplication,2021.2.3,60.01531890933341
block7.xlsx,170.2,7.5,7,5 x 7,35,17,7 x 5 = 35,large-sized_low-interference,large-sized,low-interference,7,CorrectRESP,a,0,2,2,2,0,12,12,12,,,,,,,,,,,,,,,775.1942733609976,None,775.6980136279999,None,777.6981207079989,None,778.4480516,None,778.6971307229978,None,778.6971307229978,None,d,0,0.36552819999997155,778.6971307229978,None,779.0809387959998,None,779.0809387959998,None,d,0.18171933900157455,779.0809387959998,None,779.2810299699995,None,,,,,,,,,,,,,sub-22,26/10/2003,2: Female,21/10/2023,002,1: right,2023_Oct_21_1229,[FINAL]_fmri_multiplication,2021.2.3,60.01531890933341
block7.xlsx,184.7,7.5,3,3 x 9,27,19,9 x 3 = 27,large-sized_high-interference,large-sized,high-interference,9,CorrectRESP,a,0,2,2,2,0,13,13,13,,,,,,,,,,,,,,,786.2809932739983,None,786.7811029,None,788.7813596,None,789.5311222229975,None,789.7812648590007,None,789.7812648590007,None,d,0,0.6734104220013251,789.7812648590007,None,790.4807561230009,None,790.4807561230009,None,d,0.18994812600067235,790.4807561230009,None,790.6967550519985,None,,,,,,,,,,,,,sub-22,26/10/2003,2: Female,21/10/2023,002,1: right,2023_Oct_21_1229,[FINAL]_fmri_multiplication,2021.2.3,60.01531890933341
block7.xlsx,195.2,7.5,7.1,4 x 3,15,9,3 x 4 = 15,small-sized_high-interference,small-sized,high-interference,10,IncorrectRESP,d,0,2,2,2,0,14,14,14,,,,,,,,,,,,,,,793.6968768359984,None,794.1975700069997,None,796.1977097140007,None,796.9477590360002,None,797.1979632839975,None,797.1979632839975,None,a,0,0.5207526609992783,797.1979632839975,None,797.7473582790008,None,797.7473582790008,None,d,0.17921998300153064,797.7473582790008,None,797.9470756439987,None,,,,,,,,,,,,,sub-22,26/10/2003,2: Female,21/10/2023,002,1: right,2023_Oct_21_1229,[FINAL]_fmri_multiplication,2021.2.3,60.01531890933341
block7.xlsx,209.8,7.5,3.9,2 x 8,18,5,8 x 2 = 18,small-sized_low-interference,small-sized,low-interference,7,IncorrectRESP,d,0,2,2,2,0,15,15,15,,,,,,,,,,,,,,,805.0476872,None,805.5475677549985,None,807.5478938550004,None,808.2979290429976,None,808.5478520209981,None,808.5478520209981,None,a,0,0.8988483920002182,808.5478520209981,None,809.4644336349993,None,809.4644336349993,None,d,0.13417111899980227,809.4644336349993,None,809.6313326630006,None,,,,,,,,,,,,,sub-22,26/10/2003,2: Female,21/10/2023,002,1: right,2023_Oct_21_1229,[FINAL]_fmri_multiplication,2021.2.3,60.01531890933341
block7.xlsx,221.2,7.5,13.2,8 x 5,40,21,5 x 8 = 40,large-sized_high-interference,large-sized,high-interference,9,CorrectRESP,a,0,2,2,2,0,16,16,16,,,,,,,,,,,,,,,813.5313940800006,None,814.0312806369984,None,816.0313958119987,None,816.7815027399993,None,817.0313720749982,None,817.0313720749982,None,d,0,0.39932636300000013,817.0313720749982,None,817.4481829270007,None,817.4481829270007,None,d,0.20649995699932333,817.4481829270007,None,817.6812063459984,None,,,,,,,,,,,,,sub-22,26/10/2003,2: Female,21/10/2023,002,1: right,2023_Oct_21_1229,[FINAL]_fmri_multiplication,2021.2.3,60.01531890933341
block7.xlsx,241.9,7.5,8.7,3 x 7,24,11,7 x 3 = 24,small-sized_high-interference,small-sized,high-interference,13,IncorrectRESP,d,0,2,2,2,0,17,17,17,,,,,,,,,,,,,,,830.8808607020001,None,831.3805924589979,None,833.3811226590005,None,834.1309788,None,834.3809021890011,None,834.3809021890011,None,a,0,0.6017059599980712,834.3809021890011,None,835.0144838849992,None,835.0144838849992,None,d,0.12010391300282208,835.0144838849992,None,835.1644085150001,None,,,,,,,,,,,,,sub-22,26/10/2003,2: Female,21/10/2023,002,1: right,2023_Oct_21_1229,[FINAL]_fmri_multiplication,2021.2.3,60.01531890933341
block7.xlsx,258.1,7.5,8.1,6 x 6,30,13,6 x 6 = 30,large-sized_low-interference,large-sized,low-interference,4,IncorrectRESP,d,0,2,2,2,0,18,18,18,,,,,,,,,,,,,,,843.8642919749982,None,844.3647102920004,None,846.3647912470005,None,847.1146524,None,847.3649562940009,None,847.3649562940009,None,a,0,0.5297538470003929,847.3649562940009,None,847.9143069069978,None,847.9143069069978,None,d,0.092253136,847.9143069069978,None,848.0314495169987,None,,,,,,,,,,,,,sub-22,26/10/2003,2: Female,21/10/2023,002,1: right,2023_Oct_21_1229,[FINAL]_fmri_multiplication,2021.2.3,60.01531890933341
block7.xlsx,273.7,7.5,8.2,8 x 5,45,21,5 x 8 = 45,large-sized_high-interference,large-sized,high-interference,9,IncorrectRESP,d,0,2,2,2,0,19,19,19,,,,,,,,,,,,,,,856.1310362759978,None,856.6310222,None,858.6315456459997,None,859.3810784609996,None,859.6313745480002,None,859.6313745480002,None,a,0,0.5995134199984022,859.6313745480002,None,860.2477252089993,None,860.2477252089993,None,d,0.11081446000025608,860.2477252089993,None,860.3805940309976,None,,,,,,,,,,,,,sub-22,26/10/2003,2: Female,21/10/2023,002,1: right,2023_Oct_21_1229,[FINAL]_fmri_multiplication,2021.2.3,60.01531890933341
block7.xlsx,289.4,7.5,5.5,4 x 3,12,9,3 x 4 = 12,small-sized_high-interference,small-sized,high-interference,10,CorrectRESP,a,0,2,2,2,0,20,20,20,,,,,,,,,,,,,,,868.5810461799992,None,869.0805777799978,None,871.0805425479994,None,871.8311177889991,None,872.0800277210001,None,872.0800277210001,None,d,0,0.3826747429993702,872.0800277210001,None,872.4806732420002,None,872.4806732420002,None,d,0.18998398799885763,872.4806732420002,None,872.6966875399994,None,,,,,,,,,,,,,sub-22,26/10/2003,2: Female,21/10/2023,002,1: right,2023_Oct_21_1229,[FINAL]_fmri_multiplication,2021.2.3,60.01531890933341
block7.xlsx,302.4,7.5,4.8,3 x 9,24,19,9 x 3 = 24,large-sized_high-interference,large-sized,high-interference,9,IncorrectRESP,d,0,2,2,2,0,21,21,21,,,,,,,,,,,,,,,878.1978676639992,None,878.6977323889987,None,880.7033242,None,881.4463365709998,None,881.7000252510006,None,881.7000252510006,None,a,0,0.4426084560000163,881.7000252510006,None,882.1642968989981,None,882.1642968989981,None,d,0.09040735,882.1642968989981,None,882.2810589779983,None,,,,,,,,,,,,,sub-22,26/10/2003,2: Female,21/10/2023,002,1: right,2023_Oct_21_1229,[FINAL]_fmri_multiplication,2021.2.3,60.01531890933341
block7.xlsx,314.7,7.5,2.5,5 x 9,45,15,9 x 5 = 45,large-sized_low-interference,large-sized,low-interference,6,CorrectRESP,a,0,2,2,2,0,22,22,22,,,,,,,,,,,,,,,887.0814270139999,None,887.5813447459986,None,889.5812247360009,None,890.3308831819995,None,890.5809416060001,None,890.5809416060001,None,d,0,0.4737478560018644,890.5809416060001,None,891.0805991380003,None,891.0805991380003,None,d,0.18215951499951188,891.0805991380003,None,891.2806384399992,None,,,,,,,,,,,,,sub-22,26/10/2003,2: Female,21/10/2023,002,1: right,2023_Oct_21_1229,[FINAL]_fmri_multiplication,2021.2.3,60.01531890933341
block7.xlsx,324.7,7.5,2.8,6 x 7,42,23,7 x 6 = 42,large-sized_high-interference,large-sized,high-interference,22,CorrectRESP,a,0,2,2,2,0,23,23,23,,,,,,,,,,,,,,,893.7811557819987,None,894.2808474279991,None,896.2810645690006,None,897.0312139130001,None,897.2810556369986,None,897.2810556369986,None,d,0,0.589653178,897.2810556369986,None,897.8976621889997,None,897.8976621889997,None,d,0.18894955100040534,897.8976621889997,None,898.1142885689987,None,,,,,,,,,,,,,sub-22,26/10/2003,2: Female,21/10/2023,002,1: right,2023_Oct_21_1229,[FINAL]_fmri_multiplication,2021.2.3,60.01531890933341
block7.xlsx,,,,,,,,,,,,,,0,2,2,2,,,,,0,0,0,0,,,,,,,,,,,,,,,,,,,,,,,,,,,,,,,,,,,,,,900.9142309819981,None,900.9142309819981,None,,,,,,,,,sub-22,26/10/2003,2: Female,21/10/2023,002,1: right,2023_Oct_21_1229,[FINAL]_fmri_multiplication,2021.2.3,60.01531890933341
block7.xlsx,,,,,,,,,,,,,,0,2,2,2,,,,,1,0,1,0,,,,,,,,,,,,,,,,,,,,,,,,,,,,,,,,,,,,,,901.9142704119986,901.9142704119986,901.9142704119986,901.9142704119986,,,,,,,,,sub-22,26/10/2003,2: Female,21/10/2023,002,1: right,2023_Oct_21_1229,[FINAL]_fmri_multiplication,2021.2.3,60.01531890933341
block7.xlsx,,,,,,,,,,,,,,0,2,2,2,,,,,2,0,2,0,,,,,,,,,,,,,,,,,,,,,,,,,,,,,,,,,,,,,,902.9143768489994,902.9143768489994,902.9143768489994,902.9143768489994,,,,,,,,,sub-22,26/10/2003,2: Female,21/10/2023,002,1: right,2023_Oct_21_1229,[FINAL]_fmri_multiplication,2021.2.3,60.01531890933341
block7.xlsx,,,,,,,,,,,,,,0,2,2,2,,,,,3,0,3,0,,,,,,,,,,,,,,,,,,,,,,,,,,,,,,,,,,,,,,903.9147129560006,903.9147129560006,903.9147129560006,903.9147129560006,,,,,,,,,sub-22,26/10/2003,2: Female,21/10/2023,002,1: right,2023_Oct_21_1229,[FINAL]_fmri_multiplication,2021.2.3,60.01531890933341
block7.xlsx,,,,,,,,,,,,,,0,2,2,2,,,,,4,0,4,0,,,,,,,,,,,,,,,,,,,,,,,,,,,,,,,,,,,,,,904.9142132359993,904.9142132359993,904.9142132359993,904.9142132359993,,,,,,,,,sub-22,26/10/2003,2: Female,21/10/2023,002,1: right,2023_Oct_21_1229,[FINAL]_fmri_multiplication,2021.2.3,60.01531890933341
block7.xlsx,,,,,,,,,,,,,,0,2,2,2,,,,,5,0,5,0,,,,,,,,,,,,,,,,,,,,,,,,,,,,,,,,,,,,,,905.9159881019987,905.9159881019987,905.9159881019987,905.9159881019987,,,,,,,,,sub-22,26/10/2003,2: Female,21/10/2023,002,1: right,2023_Oct_21_1229,[FINAL]_fmri_multiplication,2021.2.3,60.01531890933341
block7.xlsx,,,,,,,,,,,,,,0,2,2,2,,,,,6,0,6,0,,,,,,,,,,,,,,,,,,,,,,,,,,,,,,,,,,,,,,906.9315480019977,None,906.9315480019977,None,,,,,,,,,sub-22,26/10/2003,2: Female,21/10/2023,002,1: right,2023_Oct_21_1229,[FINAL]_fmri_multiplication,2021.2.3,60.01531890933341
block7.xlsx,,,,,,,,,,,,,,0,2,2,2,,,,,7,0,7,0,,,,,,,,,,,,,,,,,,,,,,,,,,,,,,,,,,,,,,907.9309648339986,None,907.9309648339986,None,,,,,,,,,sub-22,26/10/2003,2: Female,21/10/2023,002,1: right,2023_Oct_21_1229,[FINAL]_fmri_multiplication,2021.2.3,60.01531890933341
block7.xlsx,,,,,,,,,,,,,,0,2,2,2,,,,,8,0,8,0,,,,,,,,,,,,,,,,,,,,,,,,,,,,,,,,,,,,,,908.9313295259999,None,908.9313295259999,None,,,,,,,,,sub-22,26/10/2003,2: Female,21/10/2023,002,1: right,2023_Oct_21_1229,[FINAL]_fmri_multiplication,2021.2.3,60.01531890933341
block7.xlsx,,,,,,,,,,,,,,0,2,2,2,,,,,9,0,9,0,,,,,,,,,,,,,,,,,,,,,,,,,,,,,,,,,,,,,,909.9305990719986,None,909.9305990719986,None,,,,,,,,,sub-22,26/10/2003,2: Female,21/10/2023,002,1: right,2023_Oct_21_1229,[FINAL]_fmri_multiplication,2021.2.3,60.01531890933341
block7.xlsx,,,,,,,,,,,,,,0,2,2,2,,,,,10,0,10,0,,,,,,,,,,,,,,,,,,,,,,,,,,,,,,,,,,,,,,910.9313830780011,None,910.9313830780011,None,,,,,,,,,sub-22,26/10/2003,2: Female,21/10/2023,002,1: right,2023_Oct_21_1229,[FINAL]_fmri_multiplication,2021.2.3,60.01531890933341
block7.xlsx,,,,,,,,,,,,,,0,2,2,2,,,,,11,0,11,0,,,,,,,,,,,,,,,,,,,,,,,,,,,,,,,,,,,,,,911.9326125509979,None,911.9326125509979,None,,,,,,,,,sub-22,26/10/2003,2: Female,21/10/2023,002,1: right,2023_Oct_21_1229,[FINAL]_fmri_multiplication,2021.2.3,60.01531890933341
block7.xlsx,,,,,,,,,,,,,,0,2,2,2,,,,,12,0,12,0,,,,,,,,,,,,,,,,,,,,,,,,,,,,,,,,,,,,,,912.9309206409998,None,912.9309206409998,None,,,,,,,,,sub-22,26/10/2003,2: Female,21/10/2023,002,1: right,2023_Oct_21_1229,[FINAL]_fmri_multiplication,2021.2.3,60.01531890933341
block7.xlsx,,,,,,,,,,,,,,0,2,2,2,,,,,13,0,13,0,,,,,,,,,,,,,,,,,,,,,,,,,,,,,,,,,,,,,,913.9339833159975,None,913.9339833159975,None,,,,,,,,,sub-22,26/10/2003,2: Female,21/10/2023,002,1: right,2023_Oct_21_1229,[FINAL]_fmri_multiplication,2021.2.3,60.01531890933341
block7.xlsx,,,,,,,,,,,,,,0,2,2,2,,,,,14,0,14,0,,,,,,,,,,,,,,,,,,,,,,,,,,,,,,,,,,,,,,914.9312878349992,None,914.9312878349992,None,,,,,,,,,sub-22,26/10/2003,2: Female,21/10/2023,002,1: right,2023_Oct_21_1229,[FINAL]_fmri_multiplication,2021.2.3,60.01531890933341
block7.xlsx,,,,,,,,,,,,,,0,2,2,2,,,,,15,0,15,0,,,,,,,,,,,,,,,,,,,,,,,,,,,,,,,,,,,,,,915.9173775649979,None,915.9173775649979,None,,,,,,,,,sub-22,26/10/2003,2: Female,21/10/2023,002,1: right,2023_Oct_21_1229,[FINAL]_fmri_multiplication,2021.2.3,60.01531890933341
block7.xlsx,,,,,,,,,,,,,,0,2,2,2,,,,,16,0,16,0,,,,,,,,,,,,,,,,,,,,,,,,,,,,,,,,,,,,,,916.9322369609981,None,916.9322369609981,None,,,,,,,,,sub-22,26/10/2003,2: Female,21/10/2023,002,1: right,2023_Oct_21_1229,[FINAL]_fmri_multiplication,2021.2.3,60.01531890933341
block7.xlsx,,,,,,,,,,,,,,0,2,2,2,,,,,17,0,17,0,,,,,,,,,,,,,,,,,,,,,,,,,,,,,,,,,,,,,,917.9311889909986,None,917.9311889909986,None,,,,,,,,,sub-22,26/10/2003,2: Female,21/10/2023,002,1: right,2023_Oct_21_1229,[FINAL]_fmri_multiplication,2021.2.3,60.01531890933341
block7.xlsx,,,,,,,,,,,,,,0,2,2,2,,,,,18,0,18,0,,,,,,,,,,,,,,,,,,,,,,,,,,,,,,,,,,,,,,918.9155312,None,918.9155312,None,,,,,,,,,sub-22,26/10/2003,2: Female,21/10/2023,002,1: right,2023_Oct_21_1229,[FINAL]_fmri_multiplication,2021.2.3,60.01531890933341
block7.xlsx,,,,,,,,,,,,,,0,2,2,2,,,,,19,0,19,0,,,,,,,,,,,,,,,,,,,,,,,,,,,,,,,,,,,,,,919.9336124340007,None,919.9336124340007,None,,,,,,,,,sub-22,26/10/2003,2: Female,21/10/2023,002,1: right,2023_Oct_21_1229,[FINAL]_fmri_multiplication,2021.2.3,60.01531890933341
block7.xlsx,,,,,,,,,,,,,,0,2,2,2,,,,,20,0,20,0,,,,,,,,,,,,,,,,,,,,,,,,,,,,,,,,,,,,,,920.9171823199977,None,920.9171823199977,None,,,,,,,,,sub-22,26/10/2003,2: Female,21/10/2023,002,1: right,2023_Oct_21_1229,[FINAL]_fmri_multiplication,2021.2.3,60.01531890933341
block7.xlsx,,,,,,,,,,,,,,0,2,2,2,,,,,21,0,21,0,,,,,,,,,,,,,,,,,,,,,,,,,,,,,,,,,,,,,,921.9316489349985,None,921.9316489349985,None,,,,,,,,,sub-22,26/10/2003,2: Female,21/10/2023,002,1: right,2023_Oct_21_1229,[FINAL]_fmri_multiplication,2021.2.3,60.01531890933341
block7.xlsx,,,,,,,,,,,,,,0,2,2,2,,,,,22,0,22,0,,,,,,,,,,,,,,,,,,,,,,,,,,,,,,,,,,,,,,922.9316498769986,None,922.9316498769986,None,,,,,,,,,sub-22,26/10/2003,2: Female,21/10/2023,002,1: right,2023_Oct_21_1229,[FINAL]_fmri_multiplication,2021.2.3,60.01531890933341
block7.xlsx,,,,,,,,,,,,,,0,2,2,2,,,,,23,0,23,0,,,,,,,,,,,,,,,,,,,,,,,,,,,,,,,,,,,,,,923.9320899269987,None,923.9320899269987,None,,,,,,,,,sub-22,26/10/2003,2: Female,21/10/2023,002,1: right,2023_Oct_21_1229,[FINAL]_fmri_multiplication,2021.2.3,60.01531890933341
block7.xlsx,,,,,,,,,,,,,,0,2,2,2,,,,,24,0,24,0,,,,,,,,,,,,,,,,,,,,,,,,,,,,,,,,,,,,,,924.9310045089987,None,924.9310045089987,None,,,,,,,,,sub-22,26/10/2003,2: Female,21/10/2023,002,1: right,2023_Oct_21_1229,[FINAL]_fmri_multiplication,2021.2.3,60.01531890933341
block7.xlsx,,,,,,,,,,,,,,0,2,2,2,,,,,25,0,25,0,,,,,,,,,,,,,,,,,,,,,,,,,,,,,,,,,,,,,,925.9308427139986,None,925.9308427139986,None,,,,,,,,,sub-22,26/10/2003,2: Female,21/10/2023,002,1: right,2023_Oct_21_1229,[FINAL]_fmri_multiplication,2021.2.3,60.01531890933341
block7.xlsx,,,,,,,,,,,,,,0,2,2,2,,,,,26,0,26,0,,,,,,,,,,,,,,,,,,,,,,,,,,,,,,,,,,,,,,926.9309229729988,None,926.9309229729988,None,,,,,,,,,sub-22,26/10/2003,2: Female,21/10/2023,002,1: right,2023_Oct_21_1229,[FINAL]_fmri_multiplication,2021.2.3,60.01531890933341
block7.xlsx,,,,,,,,,,,,,,0,2,2,2,,,,,27,0,27,0,,,,,,,,,,,,,,,,,,,,,,,,,,,,,,,,,,,,,,927.9308642239994,None,927.9308642239994,None,,,,,,,,,sub-22,26/10/2003,2: Female,21/10/2023,002,1: right,2023_Oct_21_1229,[FINAL]_fmri_multiplication,2021.2.3,60.01531890933341
block7.xlsx,,,,,,,,,,,,,,0,2,2,2,,,,,28,0,28,0,,,,,,,,,,,,,,,,,,,,,,,,,,,,,,,,,,,,,,928.9309331219993,None,928.9309331219993,None,,,,,,,,,sub-22,26/10/2003,2: Female,21/10/2023,002,1: right,2023_Oct_21_1229,[FINAL]_fmri_multiplication,2021.2.3,60.01531890933341
block7.xlsx,,,,,,,,,,,,,,0,2,2,2,,,,,29,0,29,0,,,,,,,,,,,,,,,,,,,,,,,,,,,,,,,,,,,,,,929.9309777499984,None,929.9309777499984,None,,,,,,,,,sub-22,26/10/2003,2: Female,21/10/2023,002,1: right,2023_Oct_21_1229,[FINAL]_fmri_multiplication,2021.2.3,60.01531890933341
block7.xlsx,,,,,,,,,,,,,,0,2,2,2,,,,,,,,,,,,,,,,,,,,,,,,,,,,,,,,,,,,,,,,,,,,,,,,,,,,,,,,,,sub-22,26/10/2003,2: Female,21/10/2023,002,1: right,2023_Oct_21_1229,[FINAL]_fmri_multiplication,2021.2.3,60.01531890933341
block8.xlsx,10,7.5,4.2,9 x 9,81,16,9 x 9 = 81,large-sized_low-interference,large-sized,low-interference,6,CorrectRESP,a,0,3,3,3,0,0,0,0,,,,,,,,,,,,,930.9342457029998,None,940.9521746009996,None,941.4310265089989,None,943.4309253629981,None,944.1809545709984,None,944.4316508759985,None,944.4316508759985,None,d,0,0.36696302100244793,944.4316508759985,None,944.8312678,None,944.8312678,None,d,0.18332094500146923,944.8312678,None,945.0475178400011,None,,,,,,,,,,,,,sub-22,26/10/2003,2: Female,21/10/2023,002,1: right,2023_Oct_21_1229,[FINAL]_fmri_multiplication,2021.2.3,60.01531890933341
block8.xlsx,21.7,7.5,5.5,5 x 4,20,8,4 x 5 = 20,small-sized_high-interference,small-sized,high-interference,8,CorrectRESP,a,0,3,3,3,0,1,1,1,,,,,,,,,,,,,,,949.2479168450009,None,949.7479144040008,None,951.7483637,None,952.498129,None,952.7493771640002,None,952.7493771640002,None,d,0,0.4011957779985096,952.7493771640002,None,953.1815841869975,None,953.1815841869975,None,d,0.17704684699856443,953.1815841869975,None,953.3810259399979,None,,,,,,,,,,,,,sub-22,26/10/2003,2: Female,21/10/2023,002,1: right,2023_Oct_21_1229,[FINAL]_fmri_multiplication,2021.2.3,60.01531890933341
block8.xlsx,34.7,7.5,13.5,9 x 4,32,20,4 x 9 = 32,large-sized_high-interference,large-sized,high-interference,9,IncorrectRESP,d,0,3,3,3,0,2,2,2,,,,,,,,,,,,,,,958.8810502,None,959.3816588869995,None,961.3810958959984,None,962.1311754669987,None,962.3808859279998,None,962.3808859279998,None,a,0,0.48976387299990165,962.3808859279998,None,962.8975221879991,None,962.8975221879991,None,d,0.125171894,962.8975221879991,None,963.0472752309979,None,,,,,,,,,,,,,sub-22,26/10/2003,2: Female,21/10/2023,002,1: right,2023_Oct_21_1229,[FINAL]_fmri_multiplication,2021.2.3,60.01531890933341
block8.xlsx,55.7,7.5,3.1,4 x 6,24,10,6 x 4 = 24,small-sized_high-interference,small-sized,high-interference,12,CorrectRESP,a,0,3,3,3,0,3,3,3,,,,,,,,,,,,,,,976.5472112019997,None,977.0467846219981,None,979.0477091569992,None,979.7973034030001,None,980.0474299470006,None,980.0474299470006,None,d,0,0.5031526180027868,980.0474299470006,None,980.5810440950008,None,980.5810440950008,None,d,0.20153617300093174,980.5810440950008,None,980.8138449949984,None,,,,,,,,,,,,,sub-22,26/10/2003,2: Female,21/10/2023,002,1: right,2023_Oct_21_1229,[FINAL]_fmri_multiplication,2021.2.3,60.01531890933341
block8.xlsx,66.3,7.5,7.7,2 x 6,10,6,6 x 2 = 10,small-sized_low-interference,small-sized,low-interference,3,IncorrectRESP,d,0,3,3,3,0,4,4,4,,,,,,,,,,,,,,,983.9143979,None,984.4147031770008,None,986.4123779500005,None,987.1611078489987,None,987.4110441489975,None,987.4110441489975,None,a,0,0.8835884190011711,987.4110441489975,None,988.3142789989979,None,988.3142789989979,None,d,0.20441492999816546,988.3142789989979,None,988.5481470489976,None,,,,,,,,,,,,,sub-22,26/10/2003,2: Female,21/10/2023,002,1: right,2023_Oct_21_1229,[FINAL]_fmri_multiplication,2021.2.3,60.01531890933341
block8.xlsx,81.5,7.5,6.9,7 x 7,49,18,7 x 7 = 49,large-sized_low-interference,large-sized,low-interference,7,CorrectRESP,a,0,3,3,3,0,5,5,5,,,,,,,,,,,,,,,996.2477930889982,None,996.7477189029996,None,998.7471564,None,999.4976926849995,None,999.7493281,None,999.7493281,None,d,0,0.3852631500012649,999.7493281,None,1000.1645165250011,None,1000.1645165250011,None,d,0.17808286999934353,1000.1645165250011,None,1000.3640042199986,None,,,,,,,,,,,,,sub-22,26/10/2003,2: Female,21/10/2023,002,1: right,2023_Oct_21_1229,[FINAL]_fmri_multiplication,2021.2.3,60.01531890933341
block8.xlsx,95.9,7.5,12.3,2 x 6,12,6,6 x 2 = 12,small-sized_low-interference,small-sized,low-interference,3,CorrectRESP,a,0,3,3,3,0,6,6,6,,,,,,,,,,,,,,,1007.264194004998,None,1007.7642260190005,None,1009.7638891639981,None,1010.5141461940002,None,1010.7643170169977,None,1010.7643170169977,None,d,0,0.41827122700124164,1010.7643170169977,None,1011.2129758919982,None,1011.2129758919982,None,d,0.16949018000013893,1011.2129758919982,None,1011.4140931459988,None,,,,,,,,,,,,,sub-22,26/10/2003,2: Female,21/10/2023,002,1: right,2023_Oct_21_1229,[FINAL]_fmri_multiplication,2021.2.3,60.01531890933341
block8.xlsx,115.7,7.5,2.7,7 x 8,63,22,8 x 7 = 63,large-sized_high-interference,large-sized,high-interference,9,IncorrectRESP,d,0,3,3,3,0,7,7,7,,,,,,,,,,,,,,,1023.7143018379975,None,1024.2148698479978,None,1026.2148949309994,None,1026.964732960998,None,1027.2148361849977,None,1027.2148361849977,None,a,0,0.5757640619995072,1027.2148361849977,None,1027.8130960399976,None,1027.8130960399976,None,d,0.1134539800004859,1027.8130960399976,None,1027.947625984998,None,,,,,,,,,,,,,sub-22,26/10/2003,2: Female,21/10/2023,002,1: right,2023_Oct_21_1229,[FINAL]_fmri_multiplication,2021.2.3,60.01531890933341
block8.xlsx,125.9,7.5,7.8,9 x 2,16,2,2 x 9 = 16,small-sized_low-interference,small-sized,low-interference,7,IncorrectRESP,d,0,3,3,3,0,8,8,8,,,,,,,,,,,,,,,1030.6476963409987,None,1031.147570500998,None,1033.1477779380002,None,1033.8981361000006,None,1034.1475057239986,None,1034.1475057239986,None,a,0,0.539163275,1034.1475057239986,None,1034.7145158489984,None,1034.7145158489984,None,d,0.12416513400239637,1034.7145158489984,None,1034.864012244001,None,,,,,,,,,,,,,sub-22,26/10/2003,2: Female,21/10/2023,002,1: right,2023_Oct_21_1229,[FINAL]_fmri_multiplication,2021.2.3,60.01531890933341
block8.xlsx,141.2,7.5,2.9,8 x 3,24,12,3 x 8 = 24,small-sized_high-interference,small-sized,high-interference,13,CorrectRESP,a,0,3,3,3,0,9,9,9,,,,,,,,,,,,,,,1042.6643483439984,None,1043.1641352189981,None,1045.1643596190006,None,1045.9142584929978,None,1046.1641725429981,None,1046.1641725429981,None,d,0,0.49852189399825875,1046.1641725429981,None,1046.680438,None,1046.680438,None,d,0.19022574499831535,1046.680438,None,1046.8972562249983,None,,,,,,,,,,,,,sub-22,26/10/2003,2: Female,21/10/2023,002,1: right,2023_Oct_21_1229,[FINAL]_fmri_multiplication,2021.2.3,60.01531890933341
block8.xlsx,151.6,7.5,2,4 x 8,32,24,8 x 4 = 32,large-sized_high-interference,large-sized,high-interference,25,CorrectRESP,a,0,3,3,3,0,10,10,10,,,,,,,,,,,,,,,1049.7977174330008,None,1050.2974485539999,None,1052.2976455290009,None,1053.0477597499994,None,1053.2977309929993,None,1053.2977309929993,None,d,0,0.43691280499842833,1053.2977309929993,None,1053.7644683629987,None,1053.7644683629987,None,d,0.19423285499942722,1053.7644683629987,None,1053.9807189210005,None,,,,,,,,,,,,,sub-22,26/10/2003,2: Female,21/10/2023,002,1: right,2023_Oct_21_1229,[FINAL]_fmri_multiplication,2021.2.3,60.01531890933341
block8.xlsx,161.1,7.5,13.1,9 x 9,72,16,9 x 9 = 72,large-sized_low-interference,large-sized,low-interference,6,IncorrectRESP,d,0,3,3,3,0,11,11,11,,,,,,,,,,,,,,,1055.9839077129982,None,1056.4828739309996,None,1058.4981773020008,None,1059.2480644419993,None,1059.4998467299993,None,1059.4998467299993,None,a,0,0.570859688,1059.4998467299993,None,1060.0974702269996,None,1060.0974702269996,None,d,0.109130663,1060.0974702269996,None,1060.2314760070003,None,,,,,,,,,,,,,sub-22,26/10/2003,2: Female,21/10/2023,002,1: right,2023_Oct_21_1229,[FINAL]_fmri_multiplication,2021.2.3,60.01531890933341
block8.xlsx,181.7,7.5,2.4,5 x 4,16,8,4 x 5 = 16,small-sized_high-interference,small-sized,high-interference,8,IncorrectRESP,d,0,3,3,3,0,12,12,12,,,,,,,,,,,,,,,1073.3313010979982,None,1073.8308622609984,None,1075.8310021729994,None,1076.5811463360005,None,1076.8312943249985,None,1076.8312943249985,None,a,0,0.41540935699958936,1076.8312943249985,None,1077.264083285998,None,1077.264083285998,None,d,0.1024943259981228,1077.264083285998,None,1077.3978098379994,None,,,,,,,,,,,,,sub-22,26/10/2003,2: Female,21/10/2023,002,1: right,2023_Oct_21_1229,[FINAL]_fmri_multiplication,2021.2.3,60.01531890933341
block8.xlsx,191.6,7.5,5.7,7 x 7,56,18,7 x 7 = 56,large-sized_low-interference,large-sized,low-interference,7,IncorrectRESP,d,0,3,3,3,0,13,13,13,,,,,,,,,,,,,,,1079.7977245699985,None,1080.2975327599997,None,1082.2976720250008,None,1083.0474998999998,None,1083.2978802100006,None,1083.2978802100006,None,a,0,1.0927182900013577,1083.2978802100006,None,1084.4138278270002,None,1084.4138278270002,None,d,0.080877914,1084.4138278270002,None,1084.5138889169975,None,,,,,,,,,,,,,sub-22,26/10/2003,2: Female,21/10/2023,002,1: right,2023_Oct_21_1229,[FINAL]_fmri_multiplication,2021.2.3,60.01531890933341
block8.xlsx,204.8,7.5,2.2,9 x 2,18,2,2 x 9 = 18,small-sized_low-interference,small-sized,low-interference,7,CorrectRESP,a,0,3,3,3,0,14,14,14,,,,,,,,,,,,,,,1090.2146087889996,None,1090.7145799190002,None,1092.7149284570005,None,1093.464583,None,1093.715578454001,None,1093.715578454001,None,d,0,0.39510659000006854,1093.715578454001,None,1094.130950120998,None,1094.130950120998,None,d,0.1877520630005165,1094.130950120998,None,1094.3481656689983,None,,,,,,,,,,,,,sub-22,26/10/2003,2: Female,21/10/2023,002,1: right,2023_Oct_21_1229,[FINAL]_fmri_multiplication,2021.2.3,60.01531890933341
block8.xlsx,214.5,7.5,5.2,8 x 3,21,12,3 x 8 = 21,small-sized_high-interference,small-sized,high-interference,13,IncorrectRESP,d,0,3,3,3,0,15,15,15,,,,,,,,,,,,,,,1096.5481387459986,None,1097.0482428039977,None,1099.0480354739993,None,1099.7979390159999,None,1100.0465643989992,None,1100.0465643989992,None,a,0,0.5121048559994961,1100.0465643989992,None,1100.5807007639996,None,1100.5807007639996,None,d,0.13799635599934845,1100.5807007639996,None,1100.7477787099997,None,,,,,,,,,,,,,sub-22,26/10/2003,2: Female,21/10/2023,002,1: right,2023_Oct_21_1229,[FINAL]_fmri_multiplication,2021.2.3,60.01531890933341
block8.xlsx,227.2,7.5,3.8,4 x 4,20,4,4 x 4 = 20,small-sized_low-interference,small-sized,low-interference,5,IncorrectRESP,d,0,3,3,3,0,16,16,16,,,,,,,,,,,,,,,1105.9478481369988,None,1106.447767624999,None,1108.4477812349978,None,1109.1976570250008,None,1109.4479514269988,None,1109.4479514269988,None,a,0,0.45472975699885865,1109.4479514269988,None,1109.9308816929988,None,1109.9308816929988,None,d,0.14785368999946513,1109.9308816929988,None,1110.0972566550008,None,,,,,,,,,,,,,sub-22,26/10/2003,2: Female,21/10/2023,002,1: right,2023_Oct_21_1229,[FINAL]_fmri_multiplication,2021.2.3,60.01531890933341
block8.xlsx,238.5,7.5,2,4 x 6,28,10,6 x 4 = 28,small-sized_high-interference,small-sized,high-interference,12,IncorrectRESP,d,0,3,3,3,0,17,17,17,,,,,,,,,,,,,,,1113.897517237001,None,1114.3975662189987,None,1116.397643927001,None,1117.1476441609993,None,1117.3980196089979,None,1117.3980196089979,None,a,0,0.5606575679994421,1117.3980196089979,None,1117.980582,None,1117.980582,None,d,0.074108992,1117.980582,None,1118.080328101998,None,,,,,,,,,,,,,sub-22,26/10/2003,2: Female,21/10/2023,002,1: right,2023_Oct_21_1229,[FINAL]_fmri_multiplication,2021.2.3,60.01531890933341
block8.xlsx,248,7.5,4,6 x 5,30,14,5 x 6 = 30,large-sized_low-interference,large-sized,low-interference,6,CorrectRESP,a,0,3,3,3,0,18,18,18,,,,,,,,,,,,,,,1120.0810178459978,None,1120.5814182319991,None,1122.581204162001,None,1123.3311581259986,None,1123.580938,None,1123.580938,None,d,0,0.40165492800224456,1123.580938,None,1124.0146520739981,None,1124.0146520739981,None,d,0.1679522359991097,1124.0146520739981,None,1124.2143800979975,None,,,,,,,,,,,,,sub-22,26/10/2003,2: Female,21/10/2023,002,1: right,2023_Oct_21_1229,[FINAL]_fmri_multiplication,2021.2.3,60.01531890933341
block8.xlsx,259.5,7.5,11.3,7 x 8,56,22,8 x 7 = 56,large-sized_high-interference,large-sized,high-interference,9,CorrectRESP,a,0,3,3,3,0,19,19,19,,,,,,,,,,,,,,,1128.2147979529982,None,1128.7147953210006,None,1130.7148562949988,None,1131.464607,None,1131.7150486559985,None,1131.7150486559985,None,d,0,0.46756145199833554,1131.7150486559985,None,1132.214650744998,None,1132.214650744998,None,d,0.1759531280004012,1132.214650744998,None,1132.414331480999,None,,,,,,,,,,,,,sub-22,26/10/2003,2: Female,21/10/2023,002,1: right,2023_Oct_21_1229,[FINAL]_fmri_multiplication,2021.2.3,60.01531890933341
block8.xlsx,278.3,7.5,10.9,6 x 5,36,14,5 x 6 = 36,large-sized_low-interference,large-sized,low-interference,6,IncorrectRESP,d,0,3,3,3,0,20,20,20,,,,,,,,,,,,,,,1143.714383,None,1144.2144484259989,None,1146.2144665960004,None,1146.964389765999,None,1147.2133996439989,None,1147.2133996439989,None,a,0,0.5452484549969085,1147.2133996439989,None,1147.780602,None,1147.780602,None,d,0.2740896440009237,1147.780602,None,1148.080409702001,None,,,,,,,,,,,,,sub-22,26/10/2003,2: Female,21/10/2023,002,1: right,2023_Oct_21_1229,[FINAL]_fmri_multiplication,2021.2.3,60.01531890933341
block8.xlsx,296.7,7.5,3.5,9 x 4,36,20,4 x 9 = 36,large-sized_high-interference,large-sized,high-interference,9,CorrectRESP,a,0,3,3,3,0,21,21,21,,,,,,,,,,,,,,,1158.9811449959998,None,1159.4806673019993,None,1161.4956281970008,None,1162.229495653999,None,1162.4745928759985,None,1162.4745928759985,None,d,0,0.4841156999973464,1162.4745928759985,None,1162.9809717949975,None,1162.9809717949975,None,d,0.20163187800062587,1162.9809717949975,None,1163.2147198919993,None,,,,,,,,,,,,,sub-22,26/10/2003,2: Female,21/10/2023,002,1: right,2023_Oct_21_1229,[FINAL]_fmri_multiplication,2021.2.3,60.01531890933341
block8.xlsx,307.7,7.5,2.9,4 x 4,16,4,4 x 4 = 16,small-sized_low-interference,small-sized,low-interference,5,CorrectRESP,a,0,3,3,3,0,22,22,22,,,,,,,,,,,,,,,1166.7142133769994,None,1167.2136865779976,None,1169.2148457570001,None,1169.9645926519988,None,1170.2144081689985,None,1170.2144081689985,None,d,0,0.4803478899993934,1170.2144081689985,None,1170.7139839949996,None,1170.7139839949996,None,d,0.20471161900059087,1170.7139839949996,None,1170.9478117929975,None,,,,,,,,,,,,,sub-22,26/10/2003,2: Female,21/10/2023,002,1: right,2023_Oct_21_1229,[FINAL]_fmri_multiplication,2021.2.3,60.01531890933341
block8.xlsx,318.1,7.5,9.4,4 x 8,28,24,8 x 4 = 28,large-sized_high-interference,large-sized,high-interference,25,IncorrectRESP,d,0,3,3,3,0,23,23,23,,,,,,,,,,,,,,,1173.8476267240003,None,1174.3483723850004,None,1176.347672199001,None,1177.0978038629983,None,1177.347599,None,1177.347599,None,a,0,0.47508802599986666,1177.347599,None,1177.8472436089978,None,1177.8472436089978,None,d,0.10334219400101574,1177.8472436089978,None,1177.9812286909983,None,,,,,,,,,,,,,sub-22,26/10/2003,2: Female,21/10/2023,002,1: right,2023_Oct_21_1229,[FINAL]_fmri_multiplication,2021.2.3,60.01531890933341
block8.xlsx,,,,,,,,,,,,,,0,3,3,3,,,,,0,0,0,0,,,,,,,,,,,,,,,,,,,,,,,,,,,,,,,,,,,,,,1187.3829455179985,None,1187.3829455179985,None,,,,,,,,,sub-22,26/10/2003,2: Female,21/10/2023,002,1: right,2023_Oct_21_1229,[FINAL]_fmri_multiplication,2021.2.3,60.01531890933341
block8.xlsx,,,,,,,,,,,,,,0,3,3,3,,,,,1,0,1,0,,,,,,,,,,,,,,,,,,,,,,,,,,,,,,,,,,,,,,1188.3980876879978,None,1188.3980876879978,None,,,,,,,,,sub-22,26/10/2003,2: Female,21/10/2023,002,1: right,2023_Oct_21_1229,[FINAL]_fmri_multiplication,2021.2.3,60.01531890933341
block8.xlsx,,,,,,,,,,,,,,0,3,3,3,,,,,2,0,2,0,,,,,,,,,,,,,,,,,,,,,,,,,,,,,,,,,,,,,,1189.3973966459998,None,1189.3973966459998,None,,,,,,,,,sub-22,26/10/2003,2: Female,21/10/2023,002,1: right,2023_Oct_21_1229,[FINAL]_fmri_multiplication,2021.2.3,60.01531890933341
block8.xlsx,,,,,,,,,,,,,,0,3,3,3,,,,,3,0,3,0,,,,,,,,,,,,,,,,,,,,,,,,,,,,,,,,,,,,,,1190.3962694349975,None,1190.3962694349975,None,,,,,,,,,sub-22,26/10/2003,2: Female,21/10/2023,002,1: right,2023_Oct_21_1229,[FINAL]_fmri_multiplication,2021.2.3,60.01531890933341
block8.xlsx,,,,,,,,,,,,,,0,3,3,3,,,,,4,0,4,0,,,,,,,,,,,,,,,,,,,,,,,,,,,,,,,,,,,,,,1191.3991583349998,None,1191.3991583349998,None,,,,,,,,,sub-22,26/10/2003,2: Female,21/10/2023,002,1: right,2023_Oct_21_1229,[FINAL]_fmri_multiplication,2021.2.3,60.01531890933341
block8.xlsx,,,,,,,,,,,,,,0,3,3,3,,,,,5,0,5,0,,,,,,,,,,,,,,,,,,,,,,,,,,,,,,,,,,,,,,1192.4004542019975,None,1192.4004542019975,None,,,,,,,,,sub-22,26/10/2003,2: Female,21/10/2023,002,1: right,2023_Oct_21_1229,[FINAL]_fmri_multiplication,2021.2.3,60.01531890933341
block8.xlsx,,,,,,,,,,,,,,0,3,3,3,,,,,6,0,6,0,,,,,,,,,,,,,,,,,,,,,,,,,,,,,,,,,,,,,,1193.4006071269978,None,1193.4006071269978,None,,,,,,,,,sub-22,26/10/2003,2: Female,21/10/2023,002,1: right,2023_Oct_21_1229,[FINAL]_fmri_multiplication,2021.2.3,60.01531890933341
block8.xlsx,,,,,,,,,,,,,,0,3,3,3,,,,,7,0,7,0,,,,,,,,,,,,,,,,,,,,,,,,,,,,,,,,,,,,,,1194.400330780998,None,1194.400330780998,None,,,,,,,,,sub-22,26/10/2003,2: Female,21/10/2023,002,1: right,2023_Oct_21_1229,[FINAL]_fmri_multiplication,2021.2.3,60.01531890933341
block8.xlsx,,,,,,,,,,,,,,0,3,3,3,,,,,8,0,8,0,,,,,,,,,,,,,,,,,,,,,,,,,,,,,,,,,,,,,,1195.3986712849983,None,1195.3986712849983,None,,,,,,,,,sub-22,26/10/2003,2: Female,21/10/2023,002,1: right,2023_Oct_21_1229,[FINAL]_fmri_multiplication,2021.2.3,60.01531890933341
block8.xlsx,,,,,,,,,,,,,,0,3,3,3,,,,,9,0,9,0,,,,,,,,,,,,,,,,,,,,,,,,,,,,,,,,,,,,,,1196.3990782869987,None,1196.3990782869987,None,,,,,,,,,sub-22,26/10/2003,2: Female,21/10/2023,002,1: right,2023_Oct_21_1229,[FINAL]_fmri_multiplication,2021.2.3,60.01531890933341
block8.xlsx,,,,,,,,,,,,,,0,3,3,3,,,,,10,0,10,0,,,,,,,,,,,,,,,,,,,,,,,,,,,,,,,,,,,,,,1197.3985701769998,None,1197.3985701769998,None,,,,,,,,,sub-22,26/10/2003,2: Female,21/10/2023,002,1: right,2023_Oct_21_1229,[FINAL]_fmri_multiplication,2021.2.3,60.01531890933341
block8.xlsx,,,,,,,,,,,,,,0,3,3,3,,,,,11,0,11,0,,,,,,,,,,,,,,,,,,,,,,,,,,,,,,,,,,,,,,1198.400795106998,None,1198.400795106998,None,,,,,,,,,sub-22,26/10/2003,2: Female,21/10/2023,002,1: right,2023_Oct_21_1229,[FINAL]_fmri_multiplication,2021.2.3,60.01531890933341
block8.xlsx,,,,,,,,,,,,,,0,3,3,3,,,,,12,0,12,0,,,,,,,,,,,,,,,,,,,,,,,,,,,,,,,,,,,,,,1199.3994454780004,None,1199.3994454780004,None,,,,,,,,,sub-22,26/10/2003,2: Female,21/10/2023,002,1: right,2023_Oct_21_1229,[FINAL]_fmri_multiplication,2021.2.3,60.01531890933341
block8.xlsx,,,,,,,,,,,,,,0,3,3,3,,,,,13,0,13,0,,,,,,,,,,,,,,,,,,,,,,,,,,,,,,,,,,,,,,1200.3982667540004,None,1200.3982667540004,None,,,,,,,,,sub-22,26/10/2003,2: Female,21/10/2023,002,1: right,2023_Oct_21_1229,[FINAL]_fmri_multiplication,2021.2.3,60.01531890933341
block8.xlsx,,,,,,,,,,,,,,0,3,3,3,,,,,14,0,14,0,,,,,,,,,,,,,,,,,,,,,,,,,,,,,,,,,,,,,,1201.3982806409986,None,1201.3982806409986,None,,,,,,,,,sub-22,26/10/2003,2: Female,21/10/2023,002,1: right,2023_Oct_21_1229,[FINAL]_fmri_multiplication,2021.2.3,60.01531890933341
block8.xlsx,,,,,,,,,,,,,,0,3,3,3,,,,,15,0,15,0,,,,,,,,,,,,,,,,,,,,,,,,,,,,,,,,,,,,,,1202.3990539859988,None,1202.3990539859988,None,,,,,,,,,sub-22,26/10/2003,2: Female,21/10/2023,002,1: right,2023_Oct_21_1229,[FINAL]_fmri_multiplication,2021.2.3,60.01531890933341
block8.xlsx,,,,,,,,,,,,,,0,3,3,3,,,,,16,0,16,0,,,,,,,,,,,,,,,,,,,,,,,,,,,,,,,,,,,,,,1203.3983535009975,None,1203.3983535009975,None,,,,,,,,,sub-22,26/10/2003,2: Female,21/10/2023,002,1: right,2023_Oct_21_1229,[FINAL]_fmri_multiplication,2021.2.3,60.01531890933341
block8.xlsx,,,,,,,,,,,,,,0,3,3,3,,,,,17,0,17,0,,,,,,,,,,,,,,,,,,,,,,,,,,,,,,,,,,,,,,1204.398628087998,None,1204.398628087998,None,,,,,,,,,sub-22,26/10/2003,2: Female,21/10/2023,002,1: right,2023_Oct_21_1229,[FINAL]_fmri_multiplication,2021.2.3,60.01531890933341
block8.xlsx,,,,,,,,,,,,,,0,3,3,3,,,,,18,0,18,0,,,,,,,,,,,,,,,,,,,,,,,,,,,,,,,,,,,,,,1205.3978424239976,None,1205.3978424239976,None,,,,,,,,,sub-22,26/10/2003,2: Female,21/10/2023,002,1: right,2023_Oct_21_1229,[FINAL]_fmri_multiplication,2021.2.3,60.01531890933341
block8.xlsx,,,,,,,,,,,,,,0,3,3,3,,,,,19,0,19,0,,,,,,,,,,,,,,,,,,,,,,,,,,,,,,,,,,,,,,1206.3978239450007,None,1206.3978239450007,None,,,,,,,,,sub-22,26/10/2003,2: Female,21/10/2023,002,1: right,2023_Oct_21_1229,[FINAL]_fmri_multiplication,2021.2.3,60.01531890933341
block8.xlsx,,,,,,,,,,,,,,0,3,3,3,,,,,20,0,20,0,,,,,,,,,,,,,,,,,,,,,,,,,,,,,,,,,,,,,,1207.399857378001,None,1207.399857378001,None,,,,,,,,,sub-22,26/10/2003,2: Female,21/10/2023,002,1: right,2023_Oct_21_1229,[FINAL]_fmri_multiplication,2021.2.3,60.01531890933341
block8.xlsx,,,,,,,,,,,,,,0,3,3,3,,,,,21,0,21,0,,,,,,,,,,,,,,,,,,,,,,,,,,,,,,,,,,,,,,1208.3975989200007,None,1208.3975989200007,None,,,,,,,,,sub-22,26/10/2003,2: Female,21/10/2023,002,1: right,2023_Oct_21_1229,[FINAL]_fmri_multiplication,2021.2.3,60.01531890933341
block8.xlsx,,,,,,,,,,,,,,0,3,3,3,,,,,22,0,22,0,,,,,,,,,,,,,,,,,,,,,,,,,,,,,,,,,,,,,,1209.3987359540006,None,1209.3987359540006,None,,,,,,,,,sub-22,26/10/2003,2: Female,21/10/2023,002,1: right,2023_Oct_21_1229,[FINAL]_fmri_multiplication,2021.2.3,60.01531890933341
block8.xlsx,,,,,,,,,,,,,,0,3,3,3,,,,,23,0,23,0,,,,,,,,,,,,,,,,,,,,,,,,,,,,,,,,,,,,,,1210.3977226819989,None,1210.3977226819989,None,,,,,,,,,sub-22,26/10/2003,2: Female,21/10/2023,002,1: right,2023_Oct_21_1229,[FINAL]_fmri_multiplication,2021.2.3,60.01531890933341
block8.xlsx,,,,,,,,,,,,,,0,3,3,3,,,,,24,0,24,0,,,,,,,,,,,,,,,,,,,,,,,,,,,,,,,,,,,,,,1211.398005,None,1211.398005,None,,,,,,,,,sub-22,26/10/2003,2: Female,21/10/2023,002,1: right,2023_Oct_21_1229,[FINAL]_fmri_multiplication,2021.2.3,60.01531890933341
block8.xlsx,,,,,,,,,,,,,,0,3,3,3,,,,,25,0,25,0,,,,,,,,,,,,,,,,,,,,,,,,,,,,,,,,,,,,,,1212.3984986279975,None,1212.3984986279975,None,,,,,,,,,sub-22,26/10/2003,2: Female,21/10/2023,002,1: right,2023_Oct_21_1229,[FINAL]_fmri_multiplication,2021.2.3,60.01531890933341
block8.xlsx,,,,,,,,,,,,,,0,3,3,3,,,,,26,0,26,0,,,,,,,,,,,,,,,,,,,,,,,,,,,,,,,,,,,,,,1213.3981534199993,None,1213.3981534199993,None,,,,,,,,,sub-22,26/10/2003,2: Female,21/10/2023,002,1: right,2023_Oct_21_1229,[FINAL]_fmri_multiplication,2021.2.3,60.01531890933341
block8.xlsx,,,,,,,,,,,,,,0,3,3,3,,,,,27,0,27,0,,,,,,,,,,,,,,,,,,,,,,,,,,,,,,,,,,,,,,1214.3970586049982,None,1214.3970586049982,None,,,,,,,,,sub-22,26/10/2003,2: Female,21/10/2023,002,1: right,2023_Oct_21_1229,[FINAL]_fmri_multiplication,2021.2.3,60.01531890933341
block8.xlsx,,,,,,,,,,,,,,0,3,3,3,,,,,28,0,28,0,,,,,,,,,,,,,,,,,,,,,,,,,,,,,,,,,,,,,,1215.3983467549988,None,1215.3983467549988,None,,,,,,,,,sub-22,26/10/2003,2: Female,21/10/2023,002,1: right,2023_Oct_21_1229,[FINAL]_fmri_multiplication,2021.2.3,60.01531890933341
block8.xlsx,,,,,,,,,,,,,,0,3,3,3,,,,,29,0,29,0,,,,,,,,,,,,,,,,,,,,,,,,,,,,,,,,,,,,,,1216.3977853049983,None,1216.3977853049983,None,,,,,,,,,sub-22,26/10/2003,2: Female,21/10/2023,002,1: right,2023_Oct_21_1229,[FINAL]_fmri_multiplication,2021.2.3,60.01531890933341
block8.xlsx,,,,,,,,,,,,,,0,3,3,3,,,,,,,,,,,,,,,,,,,,,,,,,,,,,,,,,,,,,,,,,,,,,,,,,,,,,,,,,,sub-22,26/10/2003,2: Female,21/10/2023,002,1: right,2023_Oct_21_1229,[FINAL]_fmri_multiplication,2021.2.3,60.01531890933341
,,,,,,,,,,,,,,,,,,,,,,,,,,,,,,,,,,,,,,,,,,,,,,,,,,,,,,,,,,,,,,,,,,,1217.3976166270004,1219.3974280170005,1219.3811359549982,None,y,452.1612022579975,1219.3811359549982,None,sub-22,26/10/2003,2: Female,21/10/2023,002,1: right,2023_Oct_21_1229,[FINAL]_fmri_multiplication,2021.2.3,60.01531890933341