blocks_file,start,dur,rest,mult_problemB,mult_options,stim_trial,mult_stim,type,ProblemSize,InterferenceLH,InterferenceLevel,mult_type,corrRESP,blocks_set.thisRepN,blocks_set.thisTrialN,blocks_set.thisN,blocks_set.thisIndex,TRIALS.thisRepN,TRIALS.thisTrialN,TRIALS.thisN,TRIALS.thisIndex,timer_loop.thisRepN,timer_loop.thisTrialN,timer_loop.thisN,timer_loop.thisIndex,WAIT_TEXT.started,WAIT_TEXT.stopped,scan_start_trigger.keys,scan_start_trigger.rt,scan_start_trigger.started,scan_start_trigger.stopped,MAIN_SCREEN.started,MAIN_SCREEN.stopped,Block_Text.started,Block_Text.stopped,asterisk500ms.started,asterisk500ms.stopped,mult_question_text.started,mult_question_text.stopped,equal_text.started,equal_text.stopped,blank250_text.started,blank250_text.stopped,Mult_OPTION.started,Mult_OPTION.stopped,Mult_YN.started,Mult_YN.stopped,Mult_Resp.keys,Mult_Resp.corr,Mult_Resp.rt,Mult_Resp.started,Mult_Resp.stopped,Strategy_Q.started,Strategy_Q.stopped,Strategy_Option.started,Strategy_Option.stopped,Strategy_RESP.keys,Strategy_RESP.rt,Strategy_RESP.started,Strategy_RESP.stopped,jitters.started,jitters.stopped,resting_text.started,resting_text.stopped,countdown_timer.started,countdown_timer.stopped,participant,Date of birth (DD/MM/YEAR),gender,Testing Date (DD/MM/YEAR),session,handedness,date,expName,psychopyVersion,frameRate
,,,,,,,,,,,,,,,,,,,,,,,,,,35.38095691799754,None,s,41.73750386199754,35.38095691799754,None,,,,,,,,,,,,,,,,,,,,,,,,,,,,,,,,,,,,sub-05,06/04/1998,2: Female,09/09/2023,001,1: right,2023_Sep_09_1424,[FINAL]_fmri_multiplication,2021.2.3,59.90172451165504
block1.xlsx,10,7.5,15.3,6 x 6,36,13,6 x 6 = 36,large-sized_low-interference,large-sized,low-interference,4,CorrectRESP,a,0,0,0,0,0,0,0,0,,,,,,,,,,,77.14162639399729,None,82.17747404399779,None,92.16429163199791,None,92.64392731199769,None,94.64068272499935,None,95.39118039499954,None,95.64317746499728,None,95.64317746499728,None,a,0,0.7959622400012449,95.64317746499728,None,96.45855405899783,None,96.45855405899783,None,d,0.9565034209990699,96.45855405899783,None,97.44030266599657,None,,,,,sub-05,06/04/1998,2: Female,09/09/2023,001,1: right,2023_Sep_09_1424,[FINAL]_fmri_multiplication,2021.2.3,59.90172451165504
block1.xlsx,32.8,7.5,2.5,2 x 9,18,2,2 x 9 = 18,small-sized_low-interference,small-sized,low-interference,7,CorrectRESP,a,0,0,0,0,0,1,1,1,,,,,,,,,,,,,,,112.74013546399874,None,113.2433721540001,None,115.25735768999948,None,116.00722627799769,None,116.25787364299686,None,116.25787364299686,None,a,0,0.7330975719996786,116.25787364299686,None,117.02351765799904,None,117.02351765799904,None,d,0.551484353,117.02351765799904,None,117.60725173299943,None,,,,,sub-05,06/04/1998,2: Female,09/09/2023,001,1: right,2023_Sep_09_1424,[FINAL]_fmri_multiplication,2021.2.3,59.90172451165504
block1.xlsx,42.8,7.5,3.8,8 x 4,28,24,8 x 4 = 28,large-sized_high-interference,large-sized,high-interference,25,IncorrectRESP,d,0,0,0,0,0,2,2,2,,,,,,,,,,,,,,,120.10733955999967,None,120.60862016899773,None,122.62145550999776,None,123.35782002299675,None,123.60777393899843,None,123.60777393899843,None,d,0,0.871349265,123.60777393899843,None,124.50793464699746,None,124.50793464699746,None,d,0.49114529299913556,124.50793464699746,None,125.02378387699719,None,,,,,sub-05,06/04/1998,2: Female,09/09/2023,001,1: right,2023_Sep_09_1424,[FINAL]_fmri_multiplication,2021.2.3,59.90172451165504
block1.xlsx,54.1,7.5,5.5,7 x 2,14,1,7 x 2 = 14,small-sized_low-interference,small-sized,low-interference,4,CorrectRESP,a,0,0,0,0,0,3,3,3,,,,,,,,,,,,,,,128.82445690199893,None,129.32561269199869,None,131.3405792329977,None,132.09091623199856,None,132.34066593999887,None,132.34066593999887,None,a,0,0.642314016,132.34066593999887,None,133.00692779399833,None,133.00692779399833,None,d,0.712072189,133.00692779399833,None,133.74027430899878,None,,,,,sub-05,06/04/1998,2: Female,09/09/2023,001,1: right,2023_Sep_09_1424,[FINAL]_fmri_multiplication,2021.2.3,59.90172451165504
block1.xlsx,67.1,7.5,3,7 x 7,56,18,7 x 7 = 56,large-sized_low-interference,large-sized,low-interference,7,IncorrectRESP,d,0,0,0,0,0,4,4,4,,,,,,,,,,,,,,,139.2407138469971,None,139.7408299,None,141.74060400300004,None,142.4908120509972,None,142.74302115799946,None,142.74302115799946,None,d,0,1.0319525720005913,142.74302115799946,None,143.8075091009996,None,143.8075091009996,None,d,0.5275577499996871,143.8075091009996,None,144.35693224299757,None,,,,,sub-05,06/04/1998,2: Female,09/09/2023,001,1: right,2023_Sep_09_1424,[FINAL]_fmri_multiplication,2021.2.3,59.90172451165504
block1.xlsx,77.6,7.5,2.1,3 x 4,12,9,3 x 4 = 12,small-sized_high-interference,small-sized,high-interference,10,CorrectRESP,a,0,0,0,0,0,5,5,5,,,,,,,,,,,,,,,147.35694623099698,None,147.85725783499947,None,149.85742636499708,None,150.60735309199663,None,150.85756832499828,None,150.85756832499828,None,a,0,0.7334203630016418,150.85756832499828,None,151.62395723699956,None,151.62395723699956,None,d,0.4950743019981019,151.62395723699956,None,152.14031313199666,None,,,,,sub-05,06/04/1998,2: Female,09/09/2023,001,1: right,2023_Sep_09_1424,[FINAL]_fmri_multiplication,2021.2.3,59.90172451165504
block1.xlsx,87.2,7.5,5,8 x 7,63,22,8 x 7 = 63,large-sized_high-interference,large-sized,high-interference,9,IncorrectRESP,d,0,0,0,0,0,6,6,6,,,,,,,,,,,,,,,154.24080993399912,None,154.74078903400004,None,156.73985671399714,None,157.4914713319995,None,157.73900490199958,None,157.73900490199958,None,d,0,0.9559720799989009,157.73900490199958,None,158.7126200019993,None,158.7126200019993,None,d,0.4623808830001508,158.7126200019993,None,159.20772287399814,None,,,,,sub-05,06/04/1998,2: Female,09/09/2023,001,1: right,2023_Sep_09_1424,[FINAL]_fmri_multiplication,2021.2.3,59.90172451165504
block1.xlsx,99.7,7.5,3,5 x 5,25,3,5 x 5 = 25,small-sized_low-interference,small-sized,low-interference,3,CorrectRESP,a,0,0,0,0,0,7,7,7,,,,,,,,,,,,,,,164.2077251390001,None,164.70898465899882,None,166.7243269,None,167.47406313899774,None,167.72454250899682,None,167.72454250899682,None,a,0,0.6184421779980767,167.72454250899682,None,168.37367237599756,None,168.37367237599756,None,d,0.3533222059995751,168.37367237599756,None,168.75744548999864,None,,,,,sub-05,06/04/1998,2: Female,09/09/2023,001,1: right,2023_Sep_09_1424,[FINAL]_fmri_multiplication,2021.2.3,59.90172451165504
block1.xlsx,110.2,7.5,6.5,6 x 4,28,10,6 x 4 = 28,small-sized_high-interference,small-sized,high-interference,12,IncorrectRESP,d,0,0,0,0,0,8,8,8,,,,,,,,,,,,,,,171.75759489899792,None,172.25744327999928,None,174.25735673799863,None,175.00738225799796,None,175.25725481299742,None,175.25725481299742,None,d,0,0.901732421,175.25725481299742,None,176.1907366819978,None,176.1907366819978,None,d,0.4163808919984149,176.1907366819978,None,176.62357655199958,None,,,,,sub-05,06/04/1998,2: Female,09/09/2023,001,1: right,2023_Sep_09_1424,[FINAL]_fmri_multiplication,2021.2.3,59.90172451165504
block1.xlsx,124.2,7.5,5.7,5 x 8,40,21,5 x 8 = 40,large-sized_high-interference,large-sized,high-interference,9,CorrectRESP,a,0,0,0,0,0,9,9,9,,,,,,,,,,,,,,,183.12359446799746,None,183.6242568139969,None,185.62416313399808,None,186.37387506399682,None,186.62643331099753,None,186.62643331099753,None,a,0,0.5645123739996052,186.62643331099753,None,187.2235234309992,None,187.2235234309992,None,d,0.3594503849999455,187.2235234309992,None,187.6069258869975,None,,,,,sub-05,06/04/1998,2: Female,09/09/2023,001,1: right,2023_Sep_09_1424,[FINAL]_fmri_multiplication,2021.2.3,59.90172451165504
block1.xlsx,137.4,7.5,11.2,7 x 3,24,11,7 x 3 = 24,small-sized_high-interference,small-sized,high-interference,13,IncorrectRESP,d,0,0,0,0,0,10,10,10,,,,,,,,,,,,,,,193.30546900099944,None,193.80975457800014,None,195.82443900999715,None,196.57451734999995,None,196.824819,None,196.824819,None,d,0,1.0463140479987487,196.824819,None,197.89082666799732,None,197.89082666799732,None,d,0.31634558600126184,197.89082666799732,None,198.2243850479972,None,,,,,sub-05,06/04/1998,2: Female,09/09/2023,001,1: right,2023_Sep_09_1424,[FINAL]_fmri_multiplication,2021.2.3,59.90172451165504
block1.xlsx,156.1,7.5,6.9,5 x 6,30,14,5 x 6 = 30,large-sized_low-interference,large-sized,low-interference,6,CorrectRESP,a,0,0,0,0,0,11,11,11,,,,,,,,,,,,,,,209.42413920499894,None,209.92405829400013,None,211.92411999899923,None,212.67408482099927,None,212.9246997809969,None,212.9246997809969,None,a,0,0.7223971849998634,212.9246997809969,None,213.6737875259969,None,213.6737875259969,None,d,0.2531938220017764,213.6737875259969,None,213.9574781909978,None,,,,,sub-05,06/04/1998,2: Female,09/09/2023,001,1: right,2023_Sep_09_1424,[FINAL]_fmri_multiplication,2021.2.3,59.90172451165504
block1.xlsx,170.5,7.5,2.4,6 x 2,10,6,6 x 2 = 10,small-sized_low-interference,small-sized,low-interference,3,IncorrectRESP,d,0,0,0,0,0,12,12,12,,,,,,,,,,,,,,,220.85719453899947,None,221.35714785599703,None,223.3573680399968,None,224.10750650799673,None,224.35832875599954,None,224.35832875599954,None,d,0,0.6967329990002327,224.35832875599954,None,225.07620965599926,None,225.07620965599926,None,d,0.39493447600034415,225.07620965599926,None,225.49048371299796,None,,,,,sub-05,06/04/1998,2: Female,09/09/2023,001,1: right,2023_Sep_09_1424,[FINAL]_fmri_multiplication,2021.2.3,59.90172451165504
block1.xlsx,180.4,7.5,4.6,4 x 9,36,20,4 x 9 = 36,large-sized_high-interference,large-sized,high-interference,9,CorrectRESP,a,0,0,0,0,0,13,13,13,,,,,,,,,,,,,,,227.8938187749991,None,228.3924769769983,None,230.4077551329974,None,231.15804422499787,None,231.40798902299866,None,231.40798902299866,None,a,0,0.7991254080006911,231.40798902299866,None,232.22495828499814,None,232.22495828499814,None,d,0.2621021880004264,232.22495828499814,None,232.50730237899916,None,,,,,sub-05,06/04/1998,2: Female,09/09/2023,001,1: right,2023_Sep_09_1424,[FINAL]_fmri_multiplication,2021.2.3,59.90172451165504
block1.xlsx,192.5,7.5,9,7 x 5,40,17,7 x 5 = 40,large-sized_low-interference,large-sized,low-interference,7,IncorrectRESP,d,0,0,0,0,0,14,14,14,,,,,,,,,,,,,,,237.10750917399855,None,237.60694064999916,None,239.60746208399723,None,240.35732536299838,None,240.60704300399811,None,240.60704300399811,None,d,0,0.7519285770031274,240.60704300399811,None,241.39078773799702,None,241.39078773799702,None,d,0.2562278099976538,241.39078773799702,None,241.67339237299893,None,,,,,sub-05,06/04/1998,2: Female,09/09/2023,001,1: right,2023_Sep_09_1424,[FINAL]_fmri_multiplication,2021.2.3,59.90172451165504
block1.xlsx,209,7.5,5.8,6 x 3,18,7,6 x 3 = 18,small-sized_high-interference,small-sized,high-interference,8,CorrectRESP,a,0,0,0,0,0,15,15,15,,,,,,,,,,,,,,,250.67354619299658,None,251.1742601929982,None,253.17407745299715,None,253.92387996199977,None,254.17436510699918,None,254.17436510699918,None,a,0,0.5286261379987991,254.17436510699918,None,254.72359657299967,None,254.72359657299967,None,d,0.2835384560021339,254.72359657299967,None,255.02353346299788,None,,,,,sub-05,06/04/1998,2: Female,09/09/2023,001,1: right,2023_Sep_09_1424,[FINAL]_fmri_multiplication,2021.2.3,59.90172451165504
block1.xlsx,222.3,7.5,2.9,7 x 6,48,23,7 x 6 = 48,large-sized_high-interference,large-sized,high-interference,22,IncorrectRESP,d,0,0,0,0,0,16,16,16,,,,,,,,,,,,,,,260.82405402899894,None,261.32396342399807,None,263.32318814300015,None,264.0745278260001,None,264.32444138199935,None,264.32444138199935,None,d,0,0.7626878480004962,264.32444138199935,None,265.1071593359993,None,265.1071593359993,None,d,0.25184190800064243,265.1071593359993,None,265.39097897399915,None,,,,,sub-05,06/04/1998,2: Female,09/09/2023,001,1: right,2023_Sep_09_1424,[FINAL]_fmri_multiplication,2021.2.3,59.90172451165504
block1.xlsx,232.7,7.5,6.9,9 x 5,45,15,9 x 5 = 45,large-sized_low-interference,large-sized,low-interference,6,CorrectRESP,a,0,0,0,0,0,17,17,17,,,,,,,,,,,,,,,268.2910705389986,None,268.80627839099907,None,270.80796662399734,None,271.5577390929975,None,271.80760294899665,None,271.80760294899665,None,a,0,0.6794261859977269,271.80760294899665,None,272.5075236449993,None,272.5075236449993,None,d,0.23545522699714638,272.5075236449993,None,272.77414909399886,None,,,,,sub-05,06/04/1998,2: Female,09/09/2023,001,1: right,2023_Sep_09_1424,[FINAL]_fmri_multiplication,2021.2.3,59.90172451165504
block1.xlsx,247.1,7.5,2.5,4 x 4,20,4,4 x 4 = 20,small-sized_low-interference,small-sized,low-interference,5,IncorrectRESP,d,0,0,0,0,0,18,18,18,,,,,,,,,,,,,,,279.67400742300015,None,280.1740605849991,None,282.17400734499824,None,282.92393808999987,None,283.1744356379968,None,283.1744356379968,None,d,0,0.7047034460010764,283.1744356379968,None,283.9073405119998,None,283.9073405119998,None,d,0.25165806,283.9073405119998,None,284.19059447799737,None,,,,,sub-05,06/04/1998,2: Female,09/09/2023,001,1: right,2023_Sep_09_1424,[FINAL]_fmri_multiplication,2021.2.3,59.90172451165504
block1.xlsx,257.1,7.5,3.7,9 x 3,27,19,9 x 3 = 27,large-sized_high-interference,large-sized,high-interference,9,CorrectRESP,a,0,0,0,0,0,19,19,19,,,,,,,,,,,,,,,286.69068805799907,None,287.19169513199813,None,289.20726675999686,None,289.9573759599989,None,290.20749530699686,None,290.20749530699686,None,a,0,0.6395951900012733,290.20749530699686,None,290.8732159499996,None,290.8732159499996,None,d,0.25377467300131684,290.8732159499996,None,291.15695583900015,None,,,,,sub-05,06/04/1998,2: Female,09/09/2023,001,1: right,2023_Sep_09_1424,[FINAL]_fmri_multiplication,2021.2.3,59.90172451165504
block1.xlsx,268.3,7.5,3.5,4 x 5,20,8,4 x 5 = 20,small-sized_high-interference,small-sized,high-interference,8,CorrectRESP,a,0,0,0,0,0,20,20,20,,,,,,,,,,,,,,,294.8574705689971,None,295.3578310869998,None,297.3575970469974,None,298.1049046549997,None,298.3567441439991,None,298.3567441439991,None,a,0,0.5143297619979421,298.3567441439991,None,298.88599231199987,None,298.88599231199987,None,d,0.21722221200252534,298.88599231199987,None,299.11646717299664,None,,,,,sub-05,06/04/1998,2: Female,09/09/2023,001,1: right,2023_Sep_09_1424,[FINAL]_fmri_multiplication,2021.2.3,59.90172451165504
block1.xlsx,279.3,7.5,11.6,9 x 9,72,16,9 x 9 = 72,large-sized_low-interference,large-sized,low-interference,6,IncorrectRESP,d,0,0,0,0,0,21,21,21,,,,,,,,,,,,,,,302.62449628099785,None,303.1243701559979,None,305.12454379299743,None,305.87446416199964,None,306.1247356299973,None,306.1247356299973,None,d,0,0.634266054,306.1247356299973,None,306.7906748789974,None,306.7906748789974,None,d,0.24842104100025608,306.7906748789974,None,307.05695076199845,None,,,,,sub-05,06/04/1998,2: Female,09/09/2023,001,1: right,2023_Sep_09_1424,[FINAL]_fmri_multiplication,2021.2.3,59.90172451165504
block1.xlsx,298.4,7.5,12.8,3 x 8,21,12,3 x 8 = 21,small-sized_high-interference,small-sized,high-interference,13,IncorrectRESP,d,0,0,0,0,0,22,22,22,,,,,,,,,,,,,,,318.65739902899804,None,319.15726574499786,None,321.1574862,None,321.9073619769988,None,322.15762976899714,None,322.15762976899714,None,d,0,0.6654559309972683,322.15762976899714,None,322.8408463559972,None,322.8408463559972,None,d,0.23818699199910043,322.8408463559972,None,323.10689903399907,None,,,,,sub-05,06/04/1998,2: Female,09/09/2023,001,1: right,2023_Sep_09_1424,[FINAL]_fmri_multiplication,2021.2.3,59.90172451165504
block1.xlsx,318.7,7.5,8.8,8 x 2,18,5,8 x 2 = 18,small-sized_low-interference,small-sized,low-interference,7,IncorrectRESP,d,0,0,0,0,0,23,23,23,,,,,,,,,,,,,,,335.90780728299796,None,336.4090976239968,None,338.42445681299796,None,339.17442870899686,None,339.42484210899784,None,339.42484210899784,None,d,0,0.7181620980009029,339.42484210899784,None,340.1746642049984,None,340.1746642049984,None,d,0.2563612699996156,340.1746642049984,None,340.45754316499733,None,,,,,sub-05,06/04/1998,2: Female,09/09/2023,001,1: right,2023_Sep_09_1424,[FINAL]_fmri_multiplication,2021.2.3,59.90172451165504
block1.xlsx,,,,,,,,,,,,,,0,0,0,0,,,,,0,0,0,0,,,,,,,,,,,,,,,,,,,,,,,,,,,,,,,,,,,,,,349.2594381,None,349.2594381,None,sub-05,06/04/1998,2: Female,09/09/2023,001,1: right,2023_Sep_09_1424,[FINAL]_fmri_multiplication,2021.2.3,59.90172451165504
block1.xlsx,,,,,,,,,,,,,,0,0,0,0,,,,,1,0,1,0,,,,,,,,,,,,,,,,,,,,,,,,,,,,,,,,,,,,,,350.2764565789985,None,350.2764565789985,None,sub-05,06/04/1998,2: Female,09/09/2023,001,1: right,2023_Sep_09_1424,[FINAL]_fmri_multiplication,2021.2.3,59.90172451165504
block1.xlsx,,,,,,,,,,,,,,0,0,0,0,,,,,2,0,2,0,,,,,,,,,,,,,,,,,,,,,,,,,,,,,,,,,,,,,,351.27536875499936,None,351.27536875499936,None,sub-05,06/04/1998,2: Female,09/09/2023,001,1: right,2023_Sep_09_1424,[FINAL]_fmri_multiplication,2021.2.3,59.90172451165504
block1.xlsx,,,,,,,,,,,,,,0,0,0,0,,,,,3,0,3,0,,,,,,,,,,,,,,,,,,,,,,,,,,,,,,,,,,,,,,352.2759977939968,None,352.2759977939968,None,sub-05,06/04/1998,2: Female,09/09/2023,001,1: right,2023_Sep_09_1424,[FINAL]_fmri_multiplication,2021.2.3,59.90172451165504
block1.xlsx,,,,,,,,,,,,,,0,0,0,0,,,,,4,0,4,0,,,,,,,,,,,,,,,,,,,,,,,,,,,,,,,,,,,,,,353.2755315359973,None,353.2755315359973,None,sub-05,06/04/1998,2: Female,09/09/2023,001,1: right,2023_Sep_09_1424,[FINAL]_fmri_multiplication,2021.2.3,59.90172451165504
block1.xlsx,,,,,,,,,,,,,,0,0,0,0,,,,,5,0,5,0,,,,,,,,,,,,,,,,,,,,,,,,,,,,,,,,,,,,,,354.27651685599994,None,354.27651685599994,None,sub-05,06/04/1998,2: Female,09/09/2023,001,1: right,2023_Sep_09_1424,[FINAL]_fmri_multiplication,2021.2.3,59.90172451165504
block1.xlsx,,,,,,,,,,,,,,0,0,0,0,,,,,6,0,6,0,,,,,,,,,,,,,,,,,,,,,,,,,,,,,,,,,,,,,,355.27565632299957,None,355.27565632299957,None,sub-05,06/04/1998,2: Female,09/09/2023,001,1: right,2023_Sep_09_1424,[FINAL]_fmri_multiplication,2021.2.3,59.90172451165504
block1.xlsx,,,,,,,,,,,,,,0,0,0,0,,,,,7,0,7,0,,,,,,,,,,,,,,,,,,,,,,,,,,,,,,,,,,,,,,356.2753832979979,None,356.2753832979979,None,sub-05,06/04/1998,2: Female,09/09/2023,001,1: right,2023_Sep_09_1424,[FINAL]_fmri_multiplication,2021.2.3,59.90172451165504
block1.xlsx,,,,,,,,,,,,,,0,0,0,0,,,,,8,0,8,0,,,,,,,,,,,,,,,,,,,,,,,,,,,,,,,,,,,,,,357.27375120299985,None,357.27375120299985,None,sub-05,06/04/1998,2: Female,09/09/2023,001,1: right,2023_Sep_09_1424,[FINAL]_fmri_multiplication,2021.2.3,59.90172451165504
block1.xlsx,,,,,,,,,,,,,,0,0,0,0,,,,,9,0,9,0,,,,,,,,,,,,,,,,,,,,,,,,,,,,,,,,,,,,,,358.2747416309976,None,358.2747416309976,None,sub-05,06/04/1998,2: Female,09/09/2023,001,1: right,2023_Sep_09_1424,[FINAL]_fmri_multiplication,2021.2.3,59.90172451165504
block1.xlsx,,,,,,,,,,,,,,0,0,0,0,,,,,10,0,10,0,,,,,,,,,,,,,,,,,,,,,,,,,,,,,,,,,,,,,,359.2738691,None,359.2738691,None,sub-05,06/04/1998,2: Female,09/09/2023,001,1: right,2023_Sep_09_1424,[FINAL]_fmri_multiplication,2021.2.3,59.90172451165504
block1.xlsx,,,,,,,,,,,,,,0,0,0,0,,,,,11,0,11,0,,,,,,,,,,,,,,,,,,,,,,,,,,,,,,,,,,,,,,360.2740117829999,None,360.2740117829999,None,sub-05,06/04/1998,2: Female,09/09/2023,001,1: right,2023_Sep_09_1424,[FINAL]_fmri_multiplication,2021.2.3,59.90172451165504
block1.xlsx,,,,,,,,,,,,,,0,0,0,0,,,,,12,0,12,0,,,,,,,,,,,,,,,,,,,,,,,,,,,,,,,,,,,,,,361.27499414299746,None,361.27499414299746,None,sub-05,06/04/1998,2: Female,09/09/2023,001,1: right,2023_Sep_09_1424,[FINAL]_fmri_multiplication,2021.2.3,59.90172451165504
block1.xlsx,,,,,,,,,,,,,,0,0,0,0,,,,,13,0,13,0,,,,,,,,,,,,,,,,,,,,,,,,,,,,,,,,,,,,,,362.27414921499803,None,362.27414921499803,None,sub-05,06/04/1998,2: Female,09/09/2023,001,1: right,2023_Sep_09_1424,[FINAL]_fmri_multiplication,2021.2.3,59.90172451165504
block1.xlsx,,,,,,,,,,,,,,0,0,0,0,,,,,14,0,14,0,,,,,,,,,,,,,,,,,,,,,,,,,,,,,,,,,,,,,,363.27459602699673,None,363.27459602699673,None,sub-05,06/04/1998,2: Female,09/09/2023,001,1: right,2023_Sep_09_1424,[FINAL]_fmri_multiplication,2021.2.3,59.90172451165504
block1.xlsx,,,,,,,,,,,,,,0,0,0,0,,,,,15,0,15,0,,,,,,,,,,,,,,,,,,,,,,,,,,,,,,,,,,,,,,364.27660796499913,None,364.27660796499913,None,sub-05,06/04/1998,2: Female,09/09/2023,001,1: right,2023_Sep_09_1424,[FINAL]_fmri_multiplication,2021.2.3,59.90172451165504
block1.xlsx,,,,,,,,,,,,,,0,0,0,0,,,,,16,0,16,0,,,,,,,,,,,,,,,,,,,,,,,,,,,,,,,,,,,,,,365.2746989549996,None,365.2746989549996,None,sub-05,06/04/1998,2: Female,09/09/2023,001,1: right,2023_Sep_09_1424,[FINAL]_fmri_multiplication,2021.2.3,59.90172451165504
block1.xlsx,,,,,,,,,,,,,,0,0,0,0,,,,,17,0,17,0,,,,,,,,,,,,,,,,,,,,,,,,,,,,,,,,,,,,,,366.2745130809999,None,366.2745130809999,None,sub-05,06/04/1998,2: Female,09/09/2023,001,1: right,2023_Sep_09_1424,[FINAL]_fmri_multiplication,2021.2.3,59.90172451165504
block1.xlsx,,,,,,,,,,,,,,0,0,0,0,,,,,18,0,18,0,,,,,,,,,,,,,,,,,,,,,,,,,,,,,,,,,,,,,,367.27423864199955,None,367.27423864199955,None,sub-05,06/04/1998,2: Female,09/09/2023,001,1: right,2023_Sep_09_1424,[FINAL]_fmri_multiplication,2021.2.3,59.90172451165504
block1.xlsx,,,,,,,,,,,,,,0,0,0,0,,,,,19,0,19,0,,,,,,,,,,,,,,,,,,,,,,,,,,,,,,,,,,,,,,368.2753041469987,None,368.2753041469987,None,sub-05,06/04/1998,2: Female,09/09/2023,001,1: right,2023_Sep_09_1424,[FINAL]_fmri_multiplication,2021.2.3,59.90172451165504
block1.xlsx,,,,,,,,,,,,,,0,0,0,0,,,,,20,0,20,0,,,,,,,,,,,,,,,,,,,,,,,,,,,,,,,,,,,,,,369.2746180369977,None,369.2746180369977,None,sub-05,06/04/1998,2: Female,09/09/2023,001,1: right,2023_Sep_09_1424,[FINAL]_fmri_multiplication,2021.2.3,59.90172451165504
block1.xlsx,,,,,,,,,,,,,,0,0,0,0,,,,,21,0,21,0,,,,,,,,,,,,,,,,,,,,,,,,,,,,,,,,,,,,,,370.2593785499994,None,370.2593785499994,None,sub-05,06/04/1998,2: Female,09/09/2023,001,1: right,2023_Sep_09_1424,[FINAL]_fmri_multiplication,2021.2.3,59.90172451165504
block1.xlsx,,,,,,,,,,,,,,0,0,0,0,,,,,22,0,22,0,,,,,,,,,,,,,,,,,,,,,,,,,,,,,,,,,,,,,,371.2744414839981,None,371.2744414839981,None,sub-05,06/04/1998,2: Female,09/09/2023,001,1: right,2023_Sep_09_1424,[FINAL]_fmri_multiplication,2021.2.3,59.90172451165504
block1.xlsx,,,,,,,,,,,,,,0,0,0,0,,,,,23,0,23,0,,,,,,,,,,,,,,,,,,,,,,,,,,,,,,,,,,,,,,372.25781229699714,None,372.25781229699714,None,sub-05,06/04/1998,2: Female,09/09/2023,001,1: right,2023_Sep_09_1424,[FINAL]_fmri_multiplication,2021.2.3,59.90172451165504
block1.xlsx,,,,,,,,,,,,,,0,0,0,0,,,,,24,0,24,0,,,,,,,,,,,,,,,,,,,,,,,,,,,,,,,,,,,,,,373.25936356199963,None,373.25936356199963,None,sub-05,06/04/1998,2: Female,09/09/2023,001,1: right,2023_Sep_09_1424,[FINAL]_fmri_multiplication,2021.2.3,59.90172451165504
block1.xlsx,,,,,,,,,,,,,,0,0,0,0,,,,,25,0,25,0,,,,,,,,,,,,,,,,,,,,,,,,,,,,,,,,,,,,,,374.2744923,None,374.2744923,None,sub-05,06/04/1998,2: Female,09/09/2023,001,1: right,2023_Sep_09_1424,[FINAL]_fmri_multiplication,2021.2.3,59.90172451165504
block1.xlsx,,,,,,,,,,,,,,0,0,0,0,,,,,26,0,26,0,,,,,,,,,,,,,,,,,,,,,,,,,,,,,,,,,,,,,,375.27442856599737,None,375.27442856599737,None,sub-05,06/04/1998,2: Female,09/09/2023,001,1: right,2023_Sep_09_1424,[FINAL]_fmri_multiplication,2021.2.3,59.90172451165504
block1.xlsx,,,,,,,,,,,,,,0,0,0,0,,,,,27,0,27,0,,,,,,,,,,,,,,,,,,,,,,,,,,,,,,,,,,,,,,376.2741499409967,None,376.2741499409967,None,sub-05,06/04/1998,2: Female,09/09/2023,001,1: right,2023_Sep_09_1424,[FINAL]_fmri_multiplication,2021.2.3,59.90172451165504
block1.xlsx,,,,,,,,,,,,,,0,0,0,0,,,,,28,0,28,0,,,,,,,,,,,,,,,,,,,,,,,,,,,,,,,,,,,,,,377.2745212209993,None,377.2745212209993,None,sub-05,06/04/1998,2: Female,09/09/2023,001,1: right,2023_Sep_09_1424,[FINAL]_fmri_multiplication,2021.2.3,59.90172451165504
block1.xlsx,,,,,,,,,,,,,,0,0,0,0,,,,,29,0,29,0,,,,,,,,,,,,,,,,,,,,,,,,,,,,,,,,,,,,,,378.2749216919983,None,378.2749216919983,None,sub-05,06/04/1998,2: Female,09/09/2023,001,1: right,2023_Sep_09_1424,[FINAL]_fmri_multiplication,2021.2.3,59.90172451165504
block1.xlsx,,,,,,,,,,,,,,0,0,0,0,,,,,,,,,,,,,,,,,,,,,,,,,,,,,,,,,,,,,,,,,,,,,,,,,,sub-05,06/04/1998,2: Female,09/09/2023,001,1: right,2023_Sep_09_1424,[FINAL]_fmri_multiplication,2021.2.3,59.90172451165504
block2.xlsx,10,7.5,3.4,3 x 4,15,9,3 x 4 = 15,small-sized_high-interference,small-sized,high-interference,10,IncorrectRESP,d,0,1,1,1,0,0,0,0,,,,,,,,,,,,,379.28822141899946,None,389.29572598899904,None,389.7740228319999,None,391.77321978799955,None,392.5235968119996,None,392.7743043479968,None,392.7743043479968,None,d,0,0.7127153670007829,392.7743043479968,None,393.50759420399845,None,393.50759420399845,None,d,0.19539795099990442,393.50759420399845,None,393.7239487939987,None,,,,,sub-05,06/04/1998,2: Female,09/09/2023,001,1: right,2023_Sep_09_1424,[FINAL]_fmri_multiplication,2021.2.3,59.90172451165504
block2.xlsx,20.9,7.5,7,9 x 5,40,15,9 x 5 = 40,large-sized_low-interference,large-sized,low-interference,6,IncorrectRESP,d,0,1,1,1,0,1,1,1,,,,,,,,,,,,,,,397.12400542999967,None,397.6239105069981,None,399.62417162199927,None,400.37426301899905,None,400.6241308969984,None,400.6241308969984,None,d,0,0.6629343109998445,400.6241308969984,None,401.30763263799963,None,401.30763263799963,None,d,0.2513760590009042,401.30763263799963,None,401.59077235699806,None,,,,,sub-05,06/04/1998,2: Female,09/09/2023,001,1: right,2023_Sep_09_1424,[FINAL]_fmri_multiplication,2021.2.3,59.90172451165504
block2.xlsx,35.4,7.5,6.6,6 x 4,24,10,6 x 4 = 24,small-sized_high-interference,small-sized,high-interference,12,CorrectRESP,a,0,1,1,1,0,2,2,2,,,,,,,,,,,,,,,408.59113204799723,None,409.09117997299836,None,411.0910095259969,None,411.8408514799994,None,412.09125216999746,None,412.09125216999746,None,a,0,0.49972617299863487,412.09125216999746,None,412.6081681079995,None,412.6081681079995,None,d,0.2549528650015418,412.6081681079995,None,412.8908282679986,None,,,,,sub-05,06/04/1998,2: Female,09/09/2023,001,1: right,2023_Sep_09_1424,[FINAL]_fmri_multiplication,2021.2.3,59.90172451165504
block2.xlsx,49.5,7.5,12,7 x 6,42,23,7 x 6 = 42,large-sized_high-interference,large-sized,high-interference,22,CorrectRESP,a,0,1,1,1,0,3,3,3,,,,,,,,,,,,,,,419.4901579739999,None,419.9905472369974,None,421.9907270249969,None,422.74052392999874,None,422.99124007499995,None,422.99124007499995,None,a,0,0.5996758370019961,422.99124007499995,None,423.6239848369987,None,423.6239848369987,None,d,0.2869983450000291,423.6239848369987,None,423.9406930669975,None,,,,,sub-05,06/04/1998,2: Female,09/09/2023,001,1: right,2023_Sep_09_1424,[FINAL]_fmri_multiplication,2021.2.3,59.90172451165504
block2.xlsx,69,7.5,4.9,6 x 2,12,6,6 x 2 = 12,small-sized_low-interference,small-sized,low-interference,3,CorrectRESP,a,0,1,1,1,0,4,4,4,,,,,,,,,,,,,,,435.94081380999705,None,436.4403905219988,None,438.44076118500016,None,439.20488048199695,None,439.4579736279993,None,439.4579736279993,None,a,0,0.5410950080004113,439.4579736279993,None,440.0238717,None,440.0238717,None,d,0.2791590870001528,440.0238717,None,440.3240734760002,None,,,,,sub-05,06/04/1998,2: Female,09/09/2023,001,1: right,2023_Sep_09_1424,[FINAL]_fmri_multiplication,2021.2.3,59.90172451165504
block2.xlsx,81.4,7.5,6.6,4 x 9,32,20,4 x 9 = 32,large-sized_high-interference,large-sized,high-interference,9,IncorrectRESP,d,0,1,1,1,0,5,5,5,,,,,,,,,,,,,,,445.22411160999764,None,445.7244333,None,447.7242963869976,None,448.47404553399974,None,448.7240955,None,448.7240955,None,d,0,0.6909925310028484,448.7240955,None,449.4403347929983,None,449.4403347929983,None,d,0.29473450099976617,449.4403347929983,None,449.7569660969966,None,,,,,sub-05,06/04/1998,2: Female,09/09/2023,001,1: right,2023_Sep_09_1424,[FINAL]_fmri_multiplication,2021.2.3,59.90172451165504
block2.xlsx,95.5,7.5,2.6,5 x 5,30,3,5 x 5 = 30,small-sized_low-interference,small-sized,low-interference,3,IncorrectRESP,d,0,1,1,1,0,6,6,6,,,,,,,,,,,,,,,456.35753284199745,None,456.85688897399814,None,458.85753330399893,None,459.6073859909993,None,459.8569482,None,459.8569482,None,d,0,0.6620570689992746,459.8569482,None,460.5402640579996,None,460.5402640579996,None,d,0.29082230499989237,460.5402640579996,None,460.85690702399734,None,,,,,sub-05,06/04/1998,2: Female,09/09/2023,001,1: right,2023_Sep_09_1424,[FINAL]_fmri_multiplication,2021.2.3,59.90172451165504
block2.xlsx,105.6,7.5,3.7,8 x 4,32,24,8 x 4 = 32,large-sized_high-interference,large-sized,high-interference,25,CorrectRESP,a,0,1,1,1,0,7,7,7,,,,,,,,,,,,,,,463.45686733099865,None,463.9575090059989,None,465.95728320799753,None,466.7073135549981,None,466.9599374829995,None,466.9599374829995,None,a,0,0.7111563699982071,466.9599374829995,None,467.6905756369997,None,467.6905756369997,None,d,0.2604487759999756,467.6905756369997,None,467.9735902809989,None,,,,,sub-05,06/04/1998,2: Female,09/09/2023,001,1: right,2023_Sep_09_1424,[FINAL]_fmri_multiplication,2021.2.3,59.90172451165504
block2.xlsx,116.8,7.5,3.1,2 x 9,16,2,2 x 9 = 16,small-sized_low-interference,small-sized,low-interference,7,IncorrectRESP,d,0,1,1,1,0,8,8,8,,,,,,,,,,,,,,,471.67412713599697,None,472.17427037699963,None,474.1913003749978,None,474.9208603959996,None,475.16877764299716,None,475.16877764299716,None,d,0,0.8142063019986381,475.16877764299716,None,476.00748585999827,None,476.00748585999827,None,d,0.3354905060004967,476.00748585999827,None,476.3746670799992,None,,,,,sub-05,06/04/1998,2: Female,09/09/2023,001,1: right,2023_Sep_09_1424,[FINAL]_fmri_multiplication,2021.2.3,59.90172451165504
block2.xlsx,127.4,7.5,12.2,5 x 8,45,21,5 x 8 = 45,large-sized_high-interference,large-sized,high-interference,9,IncorrectRESP,d,0,1,1,1,0,9,9,9,,,,,,,,,,,,,,,479.4739836739973,None,479.97429369999736,None,481.9744569859977,None,482.72481642399725,None,482.97436914399805,None,482.97436914399805,None,d,0,0.6726666470021883,482.97436914399805,None,483.67382361099953,None,483.67382361099953,None,d,0.26916280099976575,483.67382361099953,None,483.9742612549999,None,,,,,sub-05,06/04/1998,2: Female,09/09/2023,001,1: right,2023_Sep_09_1424,[FINAL]_fmri_multiplication,2021.2.3,59.90172451165504
block2.xlsx,147.1,7.5,13.3,6 x 6,30,13,6 x 6 = 30,large-sized_low-interference,large-sized,low-interference,4,IncorrectRESP,d,0,1,1,1,0,10,10,10,,,,,,,,,,,,,,,496.17403164299685,None,496.6735396419972,None,498.6739310819976,None,499.4238008329994,None,499.6742850579976,None,499.6742850579976,None,d,0,0.7488308059982955,499.6742850579976,None,500.44087540799956,None,500.44087540799956,None,d,0.37421801399977994,500.44087540799956,None,500.8407741769988,None,,,,,sub-05,06/04/1998,2: Female,09/09/2023,001,1: right,2023_Sep_09_1424,[FINAL]_fmri_multiplication,2021.2.3,59.90172451165504
block2.xlsx,167.9,7.5,2.8,7 x 3,21,11,7 x 3 = 21,small-sized_high-interference,small-sized,high-interference,13,CorrectRESP,a,0,1,1,1,0,11,11,11,,,,,,,,,,,,,,,514.1411400669967,None,514.6410713219993,None,516.6408560229975,None,517.3907042909996,None,517.6416267,None,517.6416267,None,a,0,0.6694459879981878,517.6416267,None,518.3407791569989,None,518.3407791569989,None,d,0.30626182799824164,518.3407791569989,None,518.6737447,None,,,,,sub-05,06/04/1998,2: Female,09/09/2023,001,1: right,2023_Sep_09_1424,[FINAL]_fmri_multiplication,2021.2.3,59.90172451165504
block2.xlsx,178.2,7.5,3.4,8 x 7,56,22,8 x 7 = 56,large-sized_high-interference,large-sized,high-interference,9,CorrectRESP,a,0,1,1,1,0,12,12,12,,,,,,,,,,,,,,,521.4740818539976,None,521.9742094199974,None,523.9742019,None,524.7241634499987,None,524.9747259799988,None,524.9747259799988,None,a,0,0.8001859780015366,524.9747259799988,None,525.8073885649974,None,525.8073885649974,None,d,0.24766371800069464,525.8073885649974,None,526.0735910449985,None,,,,,sub-05,06/04/1998,2: Female,09/09/2023,001,1: right,2023_Sep_09_1424,[FINAL]_fmri_multiplication,2021.2.3,59.90172451165504
block2.xlsx,189.1,7.5,3.9,3 x 8,24,12,3 x 8 = 24,small-sized_high-interference,small-sized,high-interference,13,CorrectRESP,a,0,1,1,1,0,13,13,13,,,,,,,,,,,,,,,529.4735259869994,None,529.9741007089979,None,531.9740566789987,None,532.7240594169998,None,532.9744488269971,None,532.9744488269971,None,a,0,0.6565359170017473,532.9744488269971,None,533.6568456509995,None,533.6568456509995,None,d,0.23839695599963306,533.6568456509995,None,533.9240407269972,None,,,,,sub-05,06/04/1998,2: Female,09/09/2023,001,1: right,2023_Sep_09_1424,[FINAL]_fmri_multiplication,2021.2.3,59.90172451165504
block2.xlsx,200.5,7.5,2,5 x 6,36,14,5 x 6 = 36,large-sized_low-interference,large-sized,low-interference,6,IncorrectRESP,d,0,1,1,1,0,14,14,14,,,,,,,,,,,,,,,537.8240072139997,None,538.3236964059979,None,540.3241578479974,None,541.0741283639982,None,541.3243469,None,541.3243469,None,d,0,0.6506587660005607,541.3243469,None,542.0079766859999,None,542.0079766859999,None,d,0.3030526539987477,542.0079766859999,None,542.3407728169987,None,,,,,sub-05,06/04/1998,2: Female,09/09/2023,001,1: right,2023_Sep_09_1424,[FINAL]_fmri_multiplication,2021.2.3,59.90172451165504
block2.xlsx,210,7.5,8.2,7 x 2,12,1,7 x 2 = 12,small-sized_low-interference,small-sized,low-interference,4,IncorrectRESP,d,0,1,1,1,0,15,15,15,,,,,,,,,,,,,,,544.3495808799998,None,544.8569856239992,None,546.8578202999997,None,547.6077885,None,547.8577907,None,547.8577907,None,d,0,0.6612348300004669,547.8577907,None,548.5407253829981,None,548.5407253829981,None,d,0.2583566970024549,548.5407253829981,None,548.8241895,None,,,,,sub-05,06/04/1998,2: Female,09/09/2023,001,1: right,2023_Sep_09_1424,[FINAL]_fmri_multiplication,2021.2.3,59.90172451165504
block2.xlsx,225.7,7.5,6.5,9 x 9,81,16,9 x 9 = 81,large-sized_low-interference,large-sized,low-interference,6,CorrectRESP,a,0,1,1,1,0,16,16,16,,,,,,,,,,,,,,,557.0240154229978,None,557.5240556499994,None,559.5241115839999,None,560.2739390039969,None,560.5241102,None,560.5241102,None,a,0,1.170957857000758,560.5241102,None,561.7240631189998,None,561.7240631189998,None,d,0.6110424550024618,561.7240631189998,None,562.3570840689972,None,,,,,sub-05,06/04/1998,2: Female,09/09/2023,001,1: right,2023_Sep_09_1424,[FINAL]_fmri_multiplication,2021.2.3,59.90172451165504
block2.xlsx,239.7,7.5,6.2,4 x 5,16,8,4 x 5 = 16,small-sized_high-interference,small-sized,high-interference,8,IncorrectRESP,d,0,1,1,1,0,17,17,17,,,,,,,,,,,,,,,568.8568895519966,None,569.3573592309986,None,571.3573300959979,None,572.1072949109985,None,572.3580898629989,None,572.3580898629989,None,d,0,0.6490111060011259,572.3580898629989,None,573.0245410629977,None,573.0245410629977,None,d,0.2625441050004156,573.0245410629977,None,573.3069178629994,None,,,,,sub-05,06/04/1998,2: Female,09/09/2023,001,1: right,2023_Sep_09_1424,[FINAL]_fmri_multiplication,2021.2.3,59.90172451165504
block2.xlsx,253.4,7.5,11.8,8 x 2,16,5,8 x 2 = 16,small-sized_low-interference,small-sized,low-interference,7,CorrectRESP,a,0,1,1,1,0,18,18,18,,,,,,,,,,,,,,,579.5050742969979,None,580.0044855039996,None,582.0078395219971,None,582.7578135219992,None,583.0076592139994,None,583.0076592139994,None,a,0,0.6392661620011495,583.0076592139994,None,583.6745437289974,None,583.6745437289974,None,d,0.28445132699926035,583.6745437289974,None,583.9911642719999,None,,,,,sub-05,06/04/1998,2: Female,09/09/2023,001,1: right,2023_Sep_09_1424,[FINAL]_fmri_multiplication,2021.2.3,59.90172451165504
block2.xlsx,272.7,7.5,3.7,7 x 5,35,17,7 x 5 = 35,large-sized_low-interference,large-sized,low-interference,7,CorrectRESP,a,0,1,1,1,0,19,19,19,,,,,,,,,,,,,,,595.7906429309987,None,596.2908319,None,598.290669,None,599.0405196009997,None,599.2911757879992,None,599.2911757879992,None,a,0,0.46780874300020514,599.2911757879992,None,599.7907030009992,None,599.7907030009992,None,d,0.24839173699729145,599.7907030009992,None,600.0568614509975,None,,,,,sub-05,06/04/1998,2: Female,09/09/2023,001,1: right,2023_Sep_09_1424,[FINAL]_fmri_multiplication,2021.2.3,59.90172451165504
block2.xlsx,283.9,7.5,6,6 x 3,15,7,6 x 3 = 15,small-sized_high-interference,small-sized,high-interference,8,IncorrectRESP,d,0,1,1,1,0,20,20,20,,,,,,,,,,,,,,,603.7573531,None,604.2570009679985,None,606.2571208230002,None,607.0072718819974,None,607.2572425279977,None,607.2572425279977,None,d,0,0.62183901,607.2572425279977,None,607.906849,None,607.906849,None,d,0.32412909000049694,607.906849,None,608.2570819529974,None,,,,,sub-05,06/04/1998,2: Female,09/09/2023,001,1: right,2023_Sep_09_1424,[FINAL]_fmri_multiplication,2021.2.3,59.90172451165504
block2.xlsx,297.4,7.5,6.1,9 x 3,24,19,9 x 3 = 24,large-sized_high-interference,large-sized,high-interference,9,IncorrectRESP,d,0,1,1,1,0,21,21,21,,,,,,,,,,,,,,,614.2575548,None,614.7714307329989,None,616.7745368189971,None,617.5078498629991,None,617.7580630169978,None,617.7580630169978,None,d,0,0.9609616000016103,617.7580630169978,None,618.7407142169977,None,618.7407142169977,None,d,0.3223881080011779,618.7407142169977,None,619.0911486069999,None,,,,,sub-05,06/04/1998,2: Female,09/09/2023,001,1: right,2023_Sep_09_1424,[FINAL]_fmri_multiplication,2021.2.3,59.90172451165504
block2.xlsx,311,7.5,5.1,4 x 4,16,4,4 x 4 = 16,small-sized_low-interference,small-sized,low-interference,5,CorrectRESP,a,0,1,1,1,0,22,22,22,,,,,,,,,,,,,,,625.1908817399999,None,625.6907921,None,627.6907728349979,None,628.4406884539967,None,628.6909921569968,None,628.6909921569968,None,a,0,0.4919741069970769,628.6909921569968,None,629.2069808759989,None,629.2069808759989,None,d,0.27997910200065235,629.2069808759989,None,629.5068821679997,None,,,,,sub-05,06/04/1998,2: Female,09/09/2023,001,1: right,2023_Sep_09_1424,[FINAL]_fmri_multiplication,2021.2.3,59.90172451165504
block2.xlsx,323.6,7.5,3.9,7 x 7,49,18,7 x 7 = 49,large-sized_low-interference,large-sized,low-interference,7,CorrectRESP,a,0,1,1,1,0,23,23,23,,,,,,,,,,,,,,,634.6073542119993,None,635.1074731519984,None,637.1068546149982,None,637.8573290869972,None,638.1078893469967,None,638.1078893469967,None,a,0,0.5711834160028957,638.1078893469967,None,638.7073437569998,None,638.7073437569998,None,d,0.29173857199930353,638.7073437569998,None,639.0236404569987,None,,,,,sub-05,06/04/1998,2: Female,09/09/2023,001,1: right,2023_Sep_09_1424,[FINAL]_fmri_multiplication,2021.2.3,59.90172451165504
block2.xlsx,,,,,,,,,,,,,,0,1,1,1,,,,,0,0,0,0,,,,,,,,,,,,,,,,,,,,,,,,,,,,,,,,,,,,,,642.9259236909966,None,642.9259236909966,None,sub-05,06/04/1998,2: Female,09/09/2023,001,1: right,2023_Sep_09_1424,[FINAL]_fmri_multiplication,2021.2.3,59.90172451165504
block2.xlsx,,,,,,,,,,,,,,0,1,1,1,,,,,1,0,1,0,,,,,,,,,,,,,,,,,,,,,,,,,,,,,,,,,,,,,,643.9417859939967,None,643.9417859939967,None,sub-05,06/04/1998,2: Female,09/09/2023,001,1: right,2023_Sep_09_1424,[FINAL]_fmri_multiplication,2021.2.3,59.90172451165504
block2.xlsx,,,,,,,,,,,,,,0,1,1,1,,,,,2,0,2,0,,,,,,,,,,,,,,,,,,,,,,,,,,,,,,,,,,,,,,644.9408729259994,None,644.9408729259994,None,sub-05,06/04/1998,2: Female,09/09/2023,001,1: right,2023_Sep_09_1424,[FINAL]_fmri_multiplication,2021.2.3,59.90172451165504
block2.xlsx,,,,,,,,,,,,,,0,1,1,1,,,,,3,0,3,0,,,,,,,,,,,,,,,,,,,,,,,,,,,,,,,,,,,,,,645.9415294939972,None,645.9415294939972,None,sub-05,06/04/1998,2: Female,09/09/2023,001,1: right,2023_Sep_09_1424,[FINAL]_fmri_multiplication,2021.2.3,59.90172451165504
block2.xlsx,,,,,,,,,,,,,,0,1,1,1,,,,,4,0,4,0,,,,,,,,,,,,,,,,,,,,,,,,,,,,,,,,,,,,,,646.9420641679972,None,646.9420641679972,None,sub-05,06/04/1998,2: Female,09/09/2023,001,1: right,2023_Sep_09_1424,[FINAL]_fmri_multiplication,2021.2.3,59.90172451165504
block2.xlsx,,,,,,,,,,,,,,0,1,1,1,,,,,5,0,5,0,,,,,,,,,,,,,,,,,,,,,,,,,,,,,,,,,,,,,,647.9415628259994,None,647.9415628259994,None,sub-05,06/04/1998,2: Female,09/09/2023,001,1: right,2023_Sep_09_1424,[FINAL]_fmri_multiplication,2021.2.3,59.90172451165504
block2.xlsx,,,,,,,,,,,,,,0,1,1,1,,,,,6,0,6,0,,,,,,,,,,,,,,,,,,,,,,,,,,,,,,,,,,,,,,648.9414229679969,None,648.9414229679969,None,sub-05,06/04/1998,2: Female,09/09/2023,001,1: right,2023_Sep_09_1424,[FINAL]_fmri_multiplication,2021.2.3,59.90172451165504
block2.xlsx,,,,,,,,,,,,,,0,1,1,1,,,,,7,0,7,0,,,,,,,,,,,,,,,,,,,,,,,,,,,,,,,,,,,,,,649.9400018839988,None,649.9400018839988,None,sub-05,06/04/1998,2: Female,09/09/2023,001,1: right,2023_Sep_09_1424,[FINAL]_fmri_multiplication,2021.2.3,59.90172451165504
block2.xlsx,,,,,,,,,,,,,,0,1,1,1,,,,,8,0,8,0,,,,,,,,,,,,,,,,,,,,,,,,,,,,,,,,,,,,,,650.9423606059972,None,650.9423606059972,None,sub-05,06/04/1998,2: Female,09/09/2023,001,1: right,2023_Sep_09_1424,[FINAL]_fmri_multiplication,2021.2.3,59.90172451165504
block2.xlsx,,,,,,,,,,,,,,0,1,1,1,,,,,9,0,9,0,,,,,,,,,,,,,,,,,,,,,,,,,,,,,,,,,,,,,,651.9413887359988,None,651.9413887359988,None,sub-05,06/04/1998,2: Female,09/09/2023,001,1: right,2023_Sep_09_1424,[FINAL]_fmri_multiplication,2021.2.3,59.90172451165504
block2.xlsx,,,,,,,,,,,,,,0,1,1,1,,,,,10,0,10,0,,,,,,,,,,,,,,,,,,,,,,,,,,,,,,,,,,,,,,652.9413426599967,None,652.9413426599967,None,sub-05,06/04/1998,2: Female,09/09/2023,001,1: right,2023_Sep_09_1424,[FINAL]_fmri_multiplication,2021.2.3,59.90172451165504
block2.xlsx,,,,,,,,,,,,,,0,1,1,1,,,,,11,0,11,0,,,,,,,,,,,,,,,,,,,,,,,,,,,,,,,,,,,,,,653.9422852930002,None,653.9422852930002,None,sub-05,06/04/1998,2: Female,09/09/2023,001,1: right,2023_Sep_09_1424,[FINAL]_fmri_multiplication,2021.2.3,59.90172451165504
block2.xlsx,,,,,,,,,,,,,,0,1,1,1,,,,,12,0,12,0,,,,,,,,,,,,,,,,,,,,,,,,,,,,,,,,,,,,,,654.9437890929985,None,654.9437890929985,None,sub-05,06/04/1998,2: Female,09/09/2023,001,1: right,2023_Sep_09_1424,[FINAL]_fmri_multiplication,2021.2.3,59.90172451165504
block2.xlsx,,,,,,,,,,,,,,0,1,1,1,,,,,13,0,13,0,,,,,,,,,,,,,,,,,,,,,,,,,,,,,,,,,,,,,,655.9419164679966,None,655.9419164679966,None,sub-05,06/04/1998,2: Female,09/09/2023,001,1: right,2023_Sep_09_1424,[FINAL]_fmri_multiplication,2021.2.3,59.90172451165504
block2.xlsx,,,,,,,,,,,,,,0,1,1,1,,,,,14,0,14,0,,,,,,,,,,,,,,,,,,,,,,,,,,,,,,,,,,,,,,656.9419844879994,None,656.9419844879994,None,sub-05,06/04/1998,2: Female,09/09/2023,001,1: right,2023_Sep_09_1424,[FINAL]_fmri_multiplication,2021.2.3,59.90172451165504
block2.xlsx,,,,,,,,,,,,,,0,1,1,1,,,,,15,0,15,0,,,,,,,,,,,,,,,,,,,,,,,,,,,,,,,,,,,,,,657.9407544449969,None,657.9407544449969,None,sub-05,06/04/1998,2: Female,09/09/2023,001,1: right,2023_Sep_09_1424,[FINAL]_fmri_multiplication,2021.2.3,59.90172451165504
block2.xlsx,,,,,,,,,,,,,,0,1,1,1,,,,,16,0,16,0,,,,,,,,,,,,,,,,,,,,,,,,,,,,,,,,,,,,,,658.9416333529989,None,658.9416333529989,None,sub-05,06/04/1998,2: Female,09/09/2023,001,1: right,2023_Sep_09_1424,[FINAL]_fmri_multiplication,2021.2.3,59.90172451165504
block2.xlsx,,,,,,,,,,,,,,0,1,1,1,,,,,17,0,17,0,,,,,,,,,,,,,,,,,,,,,,,,,,,,,,,,,,,,,,659.940762,None,659.940762,None,sub-05,06/04/1998,2: Female,09/09/2023,001,1: right,2023_Sep_09_1424,[FINAL]_fmri_multiplication,2021.2.3,59.90172451165504
block2.xlsx,,,,,,,,,,,,,,0,1,1,1,,,,,18,0,18,0,,,,,,,,,,,,,,,,,,,,,,,,,,,,,,,,,,,,,,660.9548855949979,None,660.9548855949979,None,sub-05,06/04/1998,2: Female,09/09/2023,001,1: right,2023_Sep_09_1424,[FINAL]_fmri_multiplication,2021.2.3,59.90172451165504
block2.xlsx,,,,,,,,,,,,,,0,1,1,1,,,,,19,0,19,0,,,,,,,,,,,,,,,,,,,,,,,,,,,,,,,,,,,,,,661.9408518,None,661.9408518,None,sub-05,06/04/1998,2: Female,09/09/2023,001,1: right,2023_Sep_09_1424,[FINAL]_fmri_multiplication,2021.2.3,59.90172451165504
block2.xlsx,,,,,,,,,,,,,,0,1,1,1,,,,,20,0,20,0,,,,,,,,,,,,,,,,,,,,,,,,,,,,,,,,,,,,,,662.9408377419968,None,662.9408377419968,None,sub-05,06/04/1998,2: Female,09/09/2023,001,1: right,2023_Sep_09_1424,[FINAL]_fmri_multiplication,2021.2.3,59.90172451165504
block2.xlsx,,,,,,,,,,,,,,0,1,1,1,,,,,21,0,21,0,,,,,,,,,,,,,,,,,,,,,,,,,,,,,,,,,,,,,,663.9410006990001,None,663.9410006990001,None,sub-05,06/04/1998,2: Female,09/09/2023,001,1: right,2023_Sep_09_1424,[FINAL]_fmri_multiplication,2021.2.3,59.90172451165504
block2.xlsx,,,,,,,,,,,,,,0,1,1,1,,,,,22,0,22,0,,,,,,,,,,,,,,,,,,,,,,,,,,,,,,,,,,,,,,664.9412176549995,None,664.9412176549995,None,sub-05,06/04/1998,2: Female,09/09/2023,001,1: right,2023_Sep_09_1424,[FINAL]_fmri_multiplication,2021.2.3,59.90172451165504
block2.xlsx,,,,,,,,,,,,,,0,1,1,1,,,,,23,0,23,0,,,,,,,,,,,,,,,,,,,,,,,,,,,,,,,,,,,,,,665.9416221920001,None,665.9416221920001,None,sub-05,06/04/1998,2: Female,09/09/2023,001,1: right,2023_Sep_09_1424,[FINAL]_fmri_multiplication,2021.2.3,59.90172451165504
block2.xlsx,,,,,,,,,,,,,,0,1,1,1,,,,,24,0,24,0,,,,,,,,,,,,,,,,,,,,,,,,,,,,,,,,,,,,,,666.9405834919999,None,666.9405834919999,None,sub-05,06/04/1998,2: Female,09/09/2023,001,1: right,2023_Sep_09_1424,[FINAL]_fmri_multiplication,2021.2.3,59.90172451165504
block2.xlsx,,,,,,,,,,,,,,0,1,1,1,,,,,25,0,25,0,,,,,,,,,,,,,,,,,,,,,,,,,,,,,,,,,,,,,,667.9413860469976,None,667.9413860469976,None,sub-05,06/04/1998,2: Female,09/09/2023,001,1: right,2023_Sep_09_1424,[FINAL]_fmri_multiplication,2021.2.3,59.90172451165504
block2.xlsx,,,,,,,,,,,,,,0,1,1,1,,,,,26,0,26,0,,,,,,,,,,,,,,,,,,,,,,,,,,,,,,,,,,,,,,668.9413128989981,None,668.9413128989981,None,sub-05,06/04/1998,2: Female,09/09/2023,001,1: right,2023_Sep_09_1424,[FINAL]_fmri_multiplication,2021.2.3,59.90172451165504
block2.xlsx,,,,,,,,,,,,,,0,1,1,1,,,,,27,0,27,0,,,,,,,,,,,,,,,,,,,,,,,,,,,,,,,,,,,,,,669.9406357049993,None,669.9406357049993,None,sub-05,06/04/1998,2: Female,09/09/2023,001,1: right,2023_Sep_09_1424,[FINAL]_fmri_multiplication,2021.2.3,59.90172451165504
block2.xlsx,,,,,,,,,,,,,,0,1,1,1,,,,,28,0,28,0,,,,,,,,,,,,,,,,,,,,,,,,,,,,,,,,,,,,,,670.9412218849975,None,670.9412218849975,None,sub-05,06/04/1998,2: Female,09/09/2023,001,1: right,2023_Sep_09_1424,[FINAL]_fmri_multiplication,2021.2.3,59.90172451165504
block2.xlsx,,,,,,,,,,,,,,0,1,1,1,,,,,29,0,29,0,,,,,,,,,,,,,,,,,,,,,,,,,,,,,,,,,,,,,,671.9405875809971,None,671.9405875809971,None,sub-05,06/04/1998,2: Female,09/09/2023,001,1: right,2023_Sep_09_1424,[FINAL]_fmri_multiplication,2021.2.3,59.90172451165504
block2.xlsx,,,,,,,,,,,,,,0,1,1,1,,,,,,,,,,,,,,,,,,,,,,,,,,,,,,,,,,,,,,,,,,,,,,,,,,sub-05,06/04/1998,2: Female,09/09/2023,001,1: right,2023_Sep_09_1424,[FINAL]_fmri_multiplication,2021.2.3,59.90172451165504
block3.xlsx,10,7.5,5.9,6 x 4,24,10,6 x 4 = 24,small-sized_high-interference,small-sized,high-interference,12,CorrectRESP,a,0,2,2,2,0,0,0,0,,,,,,,,,,,,,672.9420853359989,None,682.9633419109996,None,683.4409027149995,None,685.4411732,None,686.1909819269968,None,686.4412345749988,None,686.4412345749988,None,a,0,0.5898221419993206,686.4412345749988,None,687.0575061700001,None,687.0575061700001,None,d,0.2534823639980459,687.0575061700001,None,687.3412817299977,None,,,,,sub-05,06/04/1998,2: Female,09/09/2023,001,1: right,2023_Sep_09_1424,[FINAL]_fmri_multiplication,2021.2.3,59.90172451165504
block3.xlsx,23.4,7.5,2,6 x 6,30,13,6 x 6 = 30,large-sized_low-interference,large-sized,low-interference,4,IncorrectRESP,d,0,2,2,2,0,1,1,1,,,,,,,,,,,,,,,693.2408751899966,None,693.740912,None,695.7407817,None,696.4908146979978,None,696.7411916619967,None,696.7411916619967,None,d,0,0.6258113850017253,696.7411916619967,None,697.3902990709976,None,697.3902990709976,None,d,0.32869403999939095,697.3902990709976,None,697.7401434619969,None,,,,,sub-05,06/04/1998,2: Female,09/09/2023,001,1: right,2023_Sep_09_1424,[FINAL]_fmri_multiplication,2021.2.3,59.90172451165504
block3.xlsx,32.9,7.5,3.2,2 x 9,18,2,2 x 9 = 18,small-sized_low-interference,small-sized,low-interference,7,CorrectRESP,a,0,2,2,2,0,2,2,2,,,,,,,,,,,,,,,699.7408457959973,None,700.2406412259988,None,702.2402178349985,None,702.9907186,None,703.2404886,None,703.2404886,None,a,0,0.5425009320024401,703.2404886,None,703.8069172750002,None,703.8069172750002,None,d,0.31208506199982367,703.8069172750002,None,704.1402543,None,,,,,sub-05,06/04/1998,2: Female,09/09/2023,001,1: right,2023_Sep_09_1424,[FINAL]_fmri_multiplication,2021.2.3,59.90172451165504
block3.xlsx,43.6,7.5,6,3 x 4,12,9,3 x 4 = 12,small-sized_high-interference,small-sized,high-interference,10,CorrectRESP,a,0,2,2,2,0,3,3,3,,,,,,,,,,,,,,,707.3407515229992,None,707.8413085309985,None,709.840395,None,710.5904363049995,None,710.8402630399978,None,710.8402630399978,None,a,0,0.4787292399996659,710.8402630399978,None,711.3402339,None,711.3402339,None,d,0.2907701719996112,711.3402339,None,711.6566756349966,None,,,,,sub-05,06/04/1998,2: Female,09/09/2023,001,1: right,2023_Sep_09_1424,[FINAL]_fmri_multiplication,2021.2.3,59.90172451165504
block3.xlsx,57.1,7.5,13.3,7 x 5,40,17,7 x 5 = 40,large-sized_low-interference,large-sized,low-interference,7,IncorrectRESP,d,0,2,2,2,0,4,4,4,,,,,,,,,,,,,,,717.6573355369983,None,718.1574146899984,None,720.1580623489972,None,720.9044686069974,None,721.1522645939986,None,721.1522645939986,None,d,0,0.6227279060003639,721.1522645939986,None,721.8077470669996,None,721.8077470669996,None,d,0.27924524499758263,721.8077470669996,None,722.1073735989994,None,,,,,sub-05,06/04/1998,2: Female,09/09/2023,001,1: right,2023_Sep_09_1424,[FINAL]_fmri_multiplication,2021.2.3,59.90172451165504
block3.xlsx,77.9,7.5,2,8 x 7,56,22,8 x 7 = 56,large-sized_high-interference,large-sized,high-interference,9,CorrectRESP,a,0,2,2,2,0,5,5,5,,,,,,,,,,,,,,,735.4074032559984,None,735.9072027,None,737.9073956859975,None,738.6573434579986,None,738.9078254819979,None,738.9078254819979,None,a,0,0.5552717079990543,738.9078254819979,None,739.490679,None,739.490679,None,d,0.3163221320028242,739.490679,None,739.8407217079985,None,,,,,sub-05,06/04/1998,2: Female,09/09/2023,001,1: right,2023_Sep_09_1424,[FINAL]_fmri_multiplication,2021.2.3,59.90172451165504
block3.xlsx,87.4,7.5,2.6,9 x 9,81,16,9 x 9 = 81,large-sized_low-interference,large-sized,low-interference,6,CorrectRESP,a,0,2,2,2,0,6,6,6,,,,,,,,,,,,,,,741.8406773850002,None,742.3406852419976,None,744.3407358669974,None,745.0907516989973,None,745.3407939149984,None,745.3407939149984,None,a,0,0.5462929210007132,745.3407939149984,None,745.9069054089996,None,745.9069054089996,None,d,0.31619916000272497,745.9069054089996,None,746.2402564349977,None,,,,,sub-05,06/04/1998,2: Female,09/09/2023,001,1: right,2023_Sep_09_1424,[FINAL]_fmri_multiplication,2021.2.3,59.90172451165504
block3.xlsx,97.5,7.5,2.7,4 x 5,20,8,4 x 5 = 20,small-sized_high-interference,small-sized,high-interference,8,CorrectRESP,a,0,2,2,2,0,7,7,7,,,,,,,,,,,,,,,748.8408358809975,None,749.3405457729968,None,751.3407695739988,None,752.0904346939969,None,752.3410809659981,None,752.3410809659981,None,a,0,0.5459666280003148,752.3410809659981,None,752.9070372959977,None,752.9070372959977,None,d,0.2920391199986625,752.9070372959977,None,753.2236087029996,None,,,,,sub-05,06/04/1998,2: Female,09/09/2023,001,1: right,2023_Sep_09_1424,[FINAL]_fmri_multiplication,2021.2.3,59.90172451165504
block3.xlsx,107.7,7.5,8.4,9 x 3,24,19,9 x 3 = 24,large-sized_high-interference,large-sized,high-interference,9,IncorrectRESP,d,0,2,2,2,0,8,8,8,,,,,,,,,,,,,,,755.9240353009991,None,756.4246069709989,None,758.4241592679973,None,759.1744336799966,None,759.4249801189981,None,759.4249801189981,None,d,0,0.7340024189979886,759.4249801189981,None,760.1911225399999,None,760.1911225399999,None,d,0.3278839449994848,760.1911225399999,None,760.5406886699966,None,,,,,sub-05,06/04/1998,2: Female,09/09/2023,001,1: right,2023_Sep_09_1424,[FINAL]_fmri_multiplication,2021.2.3,59.90172451165504
block3.xlsx,123.6,7.5,2.2,9 x 5,45,15,9 x 5 = 45,large-sized_low-interference,large-sized,low-interference,6,CorrectRESP,a,0,2,2,2,0,9,9,9,,,,,,,,,,,,,,,768.9408797019969,None,769.4406725319968,None,771.4407129589999,None,772.1905660289995,None,772.4410346329969,None,772.4410346329969,None,a,0,0.4619530529998883,772.4410346329969,None,772.9236367589983,None,772.9236367589983,None,d,0.33950719499989646,772.9236367589983,None,773.2901481239969,None,,,,,sub-05,06/04/1998,2: Female,09/09/2023,001,1: right,2023_Sep_09_1424,[FINAL]_fmri_multiplication,2021.2.3,59.90172451165504
block3.xlsx,133.3,7.5,9.7,4 x 4,16,4,4 x 4 = 16,small-sized_low-interference,small-sized,low-interference,5,CorrectRESP,a,0,2,2,2,0,10,10,10,,,,,,,,,,,,,,,775.4902101579974,None,775.9904702319982,None,777.9908557919989,None,778.7407633719995,None,778.9911911879972,None,778.9911911879972,None,a,0,0.5117457999986073,778.9911911879972,None,779.5236742,None,779.5236742,None,d,0.32333038700016914,779.5236742,None,779.8732462159969,None,,,,,sub-05,06/04/1998,2: Female,09/09/2023,001,1: right,2023_Sep_09_1424,[FINAL]_fmri_multiplication,2021.2.3,59.90172451165504
block3.xlsx,150.5,7.5,5.4,8 x 4,28,24,8 x 4 = 28,large-sized_high-interference,large-sized,high-interference,25,IncorrectRESP,d,0,2,2,2,0,11,11,11,,,,,,,,,,,,,,,789.5741102929969,None,790.0755884849968,None,792.0911722,None,792.8413822869989,None,793.0914841229969,None,793.0914841229969,None,d,0,0.9635933060017123,793.0914841229969,None,794.0741833329994,None,794.0741833329994,None,d,0.34890757799803396,794.0741833329994,None,794.4406668,None,,,,,sub-05,06/04/1998,2: Female,09/09/2023,001,1: right,2023_Sep_09_1424,[FINAL]_fmri_multiplication,2021.2.3,59.90172451165504
block3.xlsx,163.4,7.5,10.5,8 x 2,18,5,8 x 2 = 18,small-sized_low-interference,small-sized,low-interference,7,IncorrectRESP,d,0,2,2,2,0,12,12,12,,,,,,,,,,,,,,,799.8408729069997,None,800.3409150139996,None,802.3406569849976,None,803.0907362969992,None,803.3407873309989,None,803.3407873309989,None,d,0,0.6021928299996944,803.3407873309989,None,803.9740820859988,None,803.9740820859988,None,d,0.312936897,803.9740820859988,None,804.3069803159997,None,,,,,sub-05,06/04/1998,2: Female,09/09/2023,001,1: right,2023_Sep_09_1424,[FINAL]_fmri_multiplication,2021.2.3,59.90172451165504
block3.xlsx,181.4,7.5,3.5,7 x 6,48,23,7 x 6 = 48,large-sized_high-interference,large-sized,high-interference,22,IncorrectRESP,d,0,2,2,2,0,13,13,13,,,,,,,,,,,,,,,814.8069209479982,None,815.3074021809989,None,817.3073865249971,None,818.0574559999986,None,818.3077061429976,None,818.3077061429976,None,d,0,0.7153831699979492,818.3077061429976,None,819.0410129649972,None,819.0410129649972,None,d,0.34197443000084604,819.0410129649972,None,819.4068736769987,None,,,,,sub-05,06/04/1998,2: Female,09/09/2023,001,1: right,2023_Sep_09_1424,[FINAL]_fmri_multiplication,2021.2.3,59.90172451165504
block3.xlsx,192.4,7.5,11.8,5 x 6,30,14,5 x 6 = 30,large-sized_low-interference,large-sized,low-interference,6,CorrectRESP,a,0,2,2,2,0,14,14,14,,,,,,,,,,,,,,,822.9070660079997,None,823.4074185599966,None,825.4049397229974,None,826.1578096119993,None,826.4082958849976,None,826.4082958849976,None,a,0,0.6947684619990468,826.4082958849976,None,827.1242559789971,None,827.1242559789971,None,d,0.3388467929980834,827.1242559789971,None,827.4911189,None,,,,,sub-05,06/04/1998,2: Female,09/09/2023,001,1: right,2023_Sep_09_1424,[FINAL]_fmri_multiplication,2021.2.3,59.90172451165504
block3.xlsx,211.7,7.5,3.7,4 x 9,36,20,4 x 9 = 36,large-sized_high-interference,large-sized,high-interference,9,CorrectRESP,a,0,2,2,2,0,15,15,15,,,,,,,,,,,,,,,839.2912470859992,None,839.7907539129992,None,841.7906174079981,None,842.5406670579978,None,842.7908132799967,None,842.7908132799967,None,a,0,0.664222202,842.7908132799967,None,843.4741279899972,None,843.4741279899972,None,d,0.3650644420013123,843.4741279899972,None,843.856867,None,,,,,sub-05,06/04/1998,2: Female,09/09/2023,001,1: right,2023_Sep_09_1424,[FINAL]_fmri_multiplication,2021.2.3,59.90172451165504
block3.xlsx,222.9,7.5,2.5,7 x 7,56,18,7 x 7 = 56,large-sized_low-interference,large-sized,low-interference,7,IncorrectRESP,d,0,2,2,2,0,16,16,16,,,,,,,,,,,,,,,847.5574130399982,None,848.0572380209996,None,850.0570510889993,None,850.8072901849991,None,851.0577509,None,851.0577509,None,d,0,0.8132588519983983,851.0577509,None,851.8903077019968,None,851.8903077019968,None,d,0.36476971600131947,851.8903077019968,None,852.2735408219996,None,,,,,sub-05,06/04/1998,2: Female,09/09/2023,001,1: right,2023_Sep_09_1424,[FINAL]_fmri_multiplication,2021.2.3,59.90172451165504
block3.xlsx,232.9,7.5,9,6 x 3,15,7,6 x 3 = 15,small-sized_high-interference,small-sized,high-interference,8,IncorrectRESP,d,0,2,2,2,0,17,17,17,,,,,,,,,,,,,,,854.7741191169989,None,855.2736072109983,None,857.2741530269996,None,858.0241628139993,None,858.2920631009983,None,858.2920631009983,None,d,0,0.6749318100009987,858.2920631009983,None,858.9903530419979,None,858.9903530419979,None,d,0.33663205000266316,858.9903530419979,None,859.3575418709988,None,,,,,sub-05,06/04/1998,2: Female,09/09/2023,001,1: right,2023_Sep_09_1424,[FINAL]_fmri_multiplication,2021.2.3,59.90172451165504
block3.xlsx,249.4,7.5,9.5,7 x 2,12,1,7 x 2 = 12,small-sized_low-interference,small-sized,low-interference,4,IncorrectRESP,d,0,2,2,2,0,18,18,18,,,,,,,,,,,,,,,868.3578384979992,None,868.8574610389987,None,870.8574965,None,871.6074808189987,None,871.8569675819999,None,871.8569675819999,None,d,0,0.6780905690029613,871.8569675819999,None,872.5570160839998,None,872.5570160839998,None,d,0.4019608620001236,872.5570160839998,None,872.9905281,None,,,,,sub-05,06/04/1998,2: Female,09/09/2023,001,1: right,2023_Sep_09_1424,[FINAL]_fmri_multiplication,2021.2.3,59.90172451165504
block3.xlsx,266.4,7.5,11.1,5 x 8,40,21,5 x 8 = 40,large-sized_high-interference,large-sized,high-interference,9,CorrectRESP,a,0,2,2,2,0,19,19,19,,,,,,,,,,,,,,,882.4907214,None,882.9907387969979,None,884.9902382919972,None,885.7406788939988,None,885.9911190379971,None,885.9911190379971,None,a,0,0.6479447989986511,885.9911190379971,None,886.6573042559976,None,886.6573042559976,None,d,0.3897364779986674,886.6573042559976,None,887.0733506459983,None,,,,,sub-05,06/04/1998,2: Female,09/09/2023,001,1: right,2023_Sep_09_1424,[FINAL]_fmri_multiplication,2021.2.3,59.90172451165504
block3.xlsx,285,7.5,3.8,3 x 8,21,12,3 x 8 = 21,small-sized_high-interference,small-sized,high-interference,13,IncorrectRESP,d,0,2,2,2,0,20,20,20,,,,,,,,,,,,,,,898.1743492149981,None,898.6748966749983,None,900.6739464349994,None,901.4240200379973,None,901.6746729529987,None,901.6746729529987,None,d,0,0.6923233130000881,901.6746729529987,None,902.3907111649969,None,902.3907111649969,None,d,0.3122787949978374,902.3907111649969,None,902.7243542799988,None,,,,,sub-05,06/04/1998,2: Female,09/09/2023,001,1: right,2023_Sep_09_1424,[FINAL]_fmri_multiplication,2021.2.3,59.90172451165504
block3.xlsx,296.3,7.5,11.2,5 x 5,25,3,5 x 5 = 25,small-sized_low-interference,small-sized,low-interference,3,CorrectRESP,a,0,2,2,2,0,21,21,21,,,,,,,,,,,,,,,906.5240577769982,None,907.0237763,None,909.0240248929986,None,909.7742615339994,None,910.0242424299977,None,910.0242424299977,None,a,0,0.6068425379999098,910.0242424299977,None,910.6574194,None,910.6574194,None,d,0.35766555599911953,910.6574194,None,911.0403625869985,None,,,,,sub-05,06/04/1998,2: Female,09/09/2023,001,1: right,2023_Sep_09_1424,[FINAL]_fmri_multiplication,2021.2.3,59.90172451165504
block3.xlsx,315,7.5,2.6,7 x 3,24,11,7 x 3 = 24,small-sized_high-interference,small-sized,high-interference,13,IncorrectRESP,d,0,2,2,2,0,22,22,22,,,,,,,,,,,,,,,922.2398567849996,None,922.7387724659966,None,924.7406370159988,None,925.4905302439984,None,925.7402522779994,None,925.7402522779994,None,d,0,0.6668400249982369,925.7402522779994,None,926.4247653409984,None,926.4247653409984,None,d,0.27825961399867083,926.4247653409984,None,926.7236061619988,None,,,,,sub-05,06/04/1998,2: Female,09/09/2023,001,1: right,2023_Sep_09_1424,[FINAL]_fmri_multiplication,2021.2.3,59.90172451165504
block3.xlsx,325.1,7.5,2.4,6 x 2,10,6,6 x 2 = 10,small-sized_low-interference,small-sized,low-interference,3,IncorrectRESP,d,0,2,2,2,0,23,23,23,,,,,,,,,,,,,,,929.3240229039984,None,929.8241897099979,None,931.8243994,None,932.5744545369998,None,932.8246621319995,None,932.8246621319995,None,d,0,0.6305172610009322,932.8246621319995,None,933.4745685579983,None,933.4745685579983,None,d,0.31640699800118455,933.4745685579983,None,933.8245098369989,None,,,,,sub-05,06/04/1998,2: Female,09/09/2023,001,1: right,2023_Sep_09_1424,[FINAL]_fmri_multiplication,2021.2.3,59.90172451165504
block3.xlsx,,,,,,,,,,,,,,0,2,2,2,,,,,0,0,0,0,,,,,,,,,,,,,,,,,,,,,,,,,,,,,,,,,,,,,,936.2248925699969,None,936.2248925699969,None,sub-05,06/04/1998,2: Female,09/09/2023,001,1: right,2023_Sep_09_1424,[FINAL]_fmri_multiplication,2021.2.3,59.90172451165504
block3.xlsx,,,,,,,,,,,,,,0,2,2,2,,,,,1,0,1,0,,,,,,,,,,,,,,,,,,,,,,,,,,,,,,,,,,,,,,937.2252881509994,937.2252881509994,937.2252881509994,937.2252881509994,sub-05,06/04/1998,2: Female,09/09/2023,001,1: right,2023_Sep_09_1424,[FINAL]_fmri_multiplication,2021.2.3,59.90172451165504
block3.xlsx,,,,,,,,,,,,,,0,2,2,2,,,,,2,0,2,0,,,,,,,,,,,,,,,,,,,,,,,,,,,,,,,,,,,,,,938.2253533980002,938.2253533980002,938.2253533980002,938.2253533980002,sub-05,06/04/1998,2: Female,09/09/2023,001,1: right,2023_Sep_09_1424,[FINAL]_fmri_multiplication,2021.2.3,59.90172451165504
block3.xlsx,,,,,,,,,,,,,,0,2,2,2,,,,,3,0,3,0,,,,,,,,,,,,,,,,,,,,,,,,,,,,,,,,,,,,,,939.2419684109991,None,939.2419684109991,None,sub-05,06/04/1998,2: Female,09/09/2023,001,1: right,2023_Sep_09_1424,[FINAL]_fmri_multiplication,2021.2.3,59.90172451165504
block3.xlsx,,,,,,,,,,,,,,0,2,2,2,,,,,4,0,4,0,,,,,,,,,,,,,,,,,,,,,,,,,,,,,,,,,,,,,,940.2407015219978,None,940.2407015219978,None,sub-05,06/04/1998,2: Female,09/09/2023,001,1: right,2023_Sep_09_1424,[FINAL]_fmri_multiplication,2021.2.3,59.90172451165504
block3.xlsx,,,,,,,,,,,,,,0,2,2,2,,,,,5,0,5,0,,,,,,,,,,,,,,,,,,,,,,,,,,,,,,,,,,,,,,941.2416649379993,None,941.2416649379993,None,sub-05,06/04/1998,2: Female,09/09/2023,001,1: right,2023_Sep_09_1424,[FINAL]_fmri_multiplication,2021.2.3,59.90172451165504
block3.xlsx,,,,,,,,,,,,,,0,2,2,2,,,,,6,0,6,0,,,,,,,,,,,,,,,,,,,,,,,,,,,,,,,,,,,,,,942.2408711,None,942.2408711,None,sub-05,06/04/1998,2: Female,09/09/2023,001,1: right,2023_Sep_09_1424,[FINAL]_fmri_multiplication,2021.2.3,59.90172451165504
block3.xlsx,,,,,,,,,,,,,,0,2,2,2,,,,,7,0,7,0,,,,,,,,,,,,,,,,,,,,,,,,,,,,,,,,,,,,,,943.2409511009973,None,943.2409511009973,None,sub-05,06/04/1998,2: Female,09/09/2023,001,1: right,2023_Sep_09_1424,[FINAL]_fmri_multiplication,2021.2.3,59.90172451165504
block3.xlsx,,,,,,,,,,,,,,0,2,2,2,,,,,8,0,8,0,,,,,,,,,,,,,,,,,,,,,,,,,,,,,,,,,,,,,,944.2408060449998,None,944.2408060449998,None,sub-05,06/04/1998,2: Female,09/09/2023,001,1: right,2023_Sep_09_1424,[FINAL]_fmri_multiplication,2021.2.3,59.90172451165504
block3.xlsx,,,,,,,,,,,,,,0,2,2,2,,,,,9,0,9,0,,,,,,,,,,,,,,,,,,,,,,,,,,,,,,,,,,,,,,945.2416204809997,None,945.2416204809997,None,sub-05,06/04/1998,2: Female,09/09/2023,001,1: right,2023_Sep_09_1424,[FINAL]_fmri_multiplication,2021.2.3,59.90172451165504
block3.xlsx,,,,,,,,,,,,,,0,2,2,2,,,,,10,0,10,0,,,,,,,,,,,,,,,,,,,,,,,,,,,,,,,,,,,,,,946.2410066880002,None,946.2410066880002,None,sub-05,06/04/1998,2: Female,09/09/2023,001,1: right,2023_Sep_09_1424,[FINAL]_fmri_multiplication,2021.2.3,59.90172451165504
block3.xlsx,,,,,,,,,,,,,,0,2,2,2,,,,,11,0,11,0,,,,,,,,,,,,,,,,,,,,,,,,,,,,,,,,,,,,,,947.2411008509989,None,947.2411008509989,None,sub-05,06/04/1998,2: Female,09/09/2023,001,1: right,2023_Sep_09_1424,[FINAL]_fmri_multiplication,2021.2.3,59.90172451165504
block3.xlsx,,,,,,,,,,,,,,0,2,2,2,,,,,12,0,12,0,,,,,,,,,,,,,,,,,,,,,,,,,,,,,,,,,,,,,,948.2413335899982,None,948.2413335899982,None,sub-05,06/04/1998,2: Female,09/09/2023,001,1: right,2023_Sep_09_1424,[FINAL]_fmri_multiplication,2021.2.3,59.90172451165504
block3.xlsx,,,,,,,,,,,,,,0,2,2,2,,,,,13,0,13,0,,,,,,,,,,,,,,,,,,,,,,,,,,,,,,,,,,,,,,949.2420475,None,949.2420475,None,sub-05,06/04/1998,2: Female,09/09/2023,001,1: right,2023_Sep_09_1424,[FINAL]_fmri_multiplication,2021.2.3,59.90172451165504
block3.xlsx,,,,,,,,,,,,,,0,2,2,2,,,,,14,0,14,0,,,,,,,,,,,,,,,,,,,,,,,,,,,,,,,,,,,,,,950.2406065079995,None,950.2406065079995,None,sub-05,06/04/1998,2: Female,09/09/2023,001,1: right,2023_Sep_09_1424,[FINAL]_fmri_multiplication,2021.2.3,59.90172451165504
block3.xlsx,,,,,,,,,,,,,,0,2,2,2,,,,,15,0,15,0,,,,,,,,,,,,,,,,,,,,,,,,,,,,,,,,,,,,,,951.2418018719982,None,951.2418018719982,None,sub-05,06/04/1998,2: Female,09/09/2023,001,1: right,2023_Sep_09_1424,[FINAL]_fmri_multiplication,2021.2.3,59.90172451165504
block3.xlsx,,,,,,,,,,,,,,0,2,2,2,,,,,16,0,16,0,,,,,,,,,,,,,,,,,,,,,,,,,,,,,,,,,,,,,,952.2416450969977,None,952.2416450969977,None,sub-05,06/04/1998,2: Female,09/09/2023,001,1: right,2023_Sep_09_1424,[FINAL]_fmri_multiplication,2021.2.3,59.90172451165504
block3.xlsx,,,,,,,,,,,,,,0,2,2,2,,,,,17,0,17,0,,,,,,,,,,,,,,,,,,,,,,,,,,,,,,,,,,,,,,953.2415367799986,None,953.2415367799986,None,sub-05,06/04/1998,2: Female,09/09/2023,001,1: right,2023_Sep_09_1424,[FINAL]_fmri_multiplication,2021.2.3,59.90172451165504
block3.xlsx,,,,,,,,,,,,,,0,2,2,2,,,,,18,0,18,0,,,,,,,,,,,,,,,,,,,,,,,,,,,,,,,,,,,,,,954.2420283579995,None,954.2420283579995,None,sub-05,06/04/1998,2: Female,09/09/2023,001,1: right,2023_Sep_09_1424,[FINAL]_fmri_multiplication,2021.2.3,59.90172451165504
block3.xlsx,,,,,,,,,,,,,,0,2,2,2,,,,,19,0,19,0,,,,,,,,,,,,,,,,,,,,,,,,,,,,,,,,,,,,,,955.2410309609986,None,955.2410309609986,None,sub-05,06/04/1998,2: Female,09/09/2023,001,1: right,2023_Sep_09_1424,[FINAL]_fmri_multiplication,2021.2.3,59.90172451165504
block3.xlsx,,,,,,,,,,,,,,0,2,2,2,,,,,20,0,20,0,,,,,,,,,,,,,,,,,,,,,,,,,,,,,,,,,,,,,,956.2414972070001,None,956.2414972070001,None,sub-05,06/04/1998,2: Female,09/09/2023,001,1: right,2023_Sep_09_1424,[FINAL]_fmri_multiplication,2021.2.3,59.90172451165504
block3.xlsx,,,,,,,,,,,,,,0,2,2,2,,,,,21,0,21,0,,,,,,,,,,,,,,,,,,,,,,,,,,,,,,,,,,,,,,957.2409636149969,None,957.2409636149969,None,sub-05,06/04/1998,2: Female,09/09/2023,001,1: right,2023_Sep_09_1424,[FINAL]_fmri_multiplication,2021.2.3,59.90172451165504
block3.xlsx,,,,,,,,,,,,,,0,2,2,2,,,,,22,0,22,0,,,,,,,,,,,,,,,,,,,,,,,,,,,,,,,,,,,,,,958.2418824219967,None,958.2418824219967,None,sub-05,06/04/1998,2: Female,09/09/2023,001,1: right,2023_Sep_09_1424,[FINAL]_fmri_multiplication,2021.2.3,59.90172451165504
block3.xlsx,,,,,,,,,,,,,,0,2,2,2,,,,,23,0,23,0,,,,,,,,,,,,,,,,,,,,,,,,,,,,,,,,,,,,,,959.2416103519972,None,959.2416103519972,None,sub-05,06/04/1998,2: Female,09/09/2023,001,1: right,2023_Sep_09_1424,[FINAL]_fmri_multiplication,2021.2.3,59.90172451165504
block3.xlsx,,,,,,,,,,,,,,0,2,2,2,,,,,24,0,24,0,,,,,,,,,,,,,,,,,,,,,,,,,,,,,,,,,,,,,,960.2418158769979,None,960.2418158769979,None,sub-05,06/04/1998,2: Female,09/09/2023,001,1: right,2023_Sep_09_1424,[FINAL]_fmri_multiplication,2021.2.3,59.90172451165504
block3.xlsx,,,,,,,,,,,,,,0,2,2,2,,,,,25,0,25,0,,,,,,,,,,,,,,,,,,,,,,,,,,,,,,,,,,,,,,961.2419361129978,None,961.2419361129978,None,sub-05,06/04/1998,2: Female,09/09/2023,001,1: right,2023_Sep_09_1424,[FINAL]_fmri_multiplication,2021.2.3,59.90172451165504
block3.xlsx,,,,,,,,,,,,,,0,2,2,2,,,,,26,0,26,0,,,,,,,,,,,,,,,,,,,,,,,,,,,,,,,,,,,,,,962.2403630409972,None,962.2403630409972,None,sub-05,06/04/1998,2: Female,09/09/2023,001,1: right,2023_Sep_09_1424,[FINAL]_fmri_multiplication,2021.2.3,59.90172451165504
block3.xlsx,,,,,,,,,,,,,,0,2,2,2,,,,,27,0,27,0,,,,,,,,,,,,,,,,,,,,,,,,,,,,,,,,,,,,,,963.2422452989995,None,963.2422452989995,None,sub-05,06/04/1998,2: Female,09/09/2023,001,1: right,2023_Sep_09_1424,[FINAL]_fmri_multiplication,2021.2.3,59.90172451165504
block3.xlsx,,,,,,,,,,,,,,0,2,2,2,,,,,28,0,28,0,,,,,,,,,,,,,,,,,,,,,,,,,,,,,,,,,,,,,,964.2407932179995,None,964.2407932179995,None,sub-05,06/04/1998,2: Female,09/09/2023,001,1: right,2023_Sep_09_1424,[FINAL]_fmri_multiplication,2021.2.3,59.90172451165504
block3.xlsx,,,,,,,,,,,,,,0,2,2,2,,,,,29,0,29,0,,,,,,,,,,,,,,,,,,,,,,,,,,,,,,,,,,,,,,965.2412003749996,None,965.2412003749996,None,sub-05,06/04/1998,2: Female,09/09/2023,001,1: right,2023_Sep_09_1424,[FINAL]_fmri_multiplication,2021.2.3,59.90172451165504
block3.xlsx,,,,,,,,,,,,,,0,2,2,2,,,,,,,,,,,,,,,,,,,,,,,,,,,,,,,,,,,,,,,,,,,,,,,,,,sub-05,06/04/1998,2: Female,09/09/2023,001,1: right,2023_Sep_09_1424,[FINAL]_fmri_multiplication,2021.2.3,59.90172451165504
block4.xlsx,10,7.5,8.4,5 x 6,36,14,5 x 6 = 36,large-sized_low-interference,large-sized,low-interference,6,IncorrectRESP,d,0,3,3,3,0,0,0,0,,,,,,,,,,,,,966.2409238,None,976.2618185629981,None,976.7408109169992,None,978.7408699,None,979.4908195489988,None,979.7407148619968,None,979.7407148619968,None,d,0,0.6664391470003466,979.7407148619968,None,980.4249221059981,None,980.4249221059981,None,d,0.36606593599935877,980.4249221059981,None,980.8241074049984,None,,,,,sub-05,06/04/1998,2: Female,09/09/2023,001,1: right,2023_Sep_09_1424,[FINAL]_fmri_multiplication,2021.2.3,59.90172451165504
block4.xlsx,25.9,7.5,2.6,6 x 2,12,6,6 x 2 = 12,small-sized_low-interference,small-sized,low-interference,3,CorrectRESP,a,0,3,3,3,0,1,1,1,,,,,,,,,,,,,,,989.2239648169998,None,989.7232418509993,None,991.7235568449978,None,992.4740328,None,992.7250373989991,None,992.7250373989991,None,a,0,0.4339679859986063,992.7250373989991,None,993.1905830059986,None,993.1905830059986,None,d,0.49649491700256476,993.1905830059986,None,993.7069538379983,None,,,,,sub-05,06/04/1998,2: Female,09/09/2023,001,1: right,2023_Sep_09_1424,[FINAL]_fmri_multiplication,2021.2.3,59.90172451165504
block4.xlsx,36,7.5,3.8,8 x 4,32,24,8 x 4 = 32,large-sized_high-interference,large-sized,high-interference,25,CorrectRESP,a,0,3,3,3,0,2,2,2,,,,,,,,,,,,,,,996.3074825559997,None,996.8087910279974,None,998.8239259479997,None,999.5741251709987,None,999.8238213730001,None,999.8238213730001,None,a,0,0.567143105,999.8238213730001,None,1000.4242664059966,None,1000.4242664059966,None,d,0.3108246699994197,1000.4242664059966,None,1000.7571900509975,None,,,,,sub-05,06/04/1998,2: Female,09/09/2023,001,1: right,2023_Sep_09_1424,[FINAL]_fmri_multiplication,2021.2.3,59.90172451165504
block4.xlsx,47.3,7.5,3.8,9 x 5,40,15,9 x 5 = 40,large-sized_low-interference,large-sized,low-interference,6,IncorrectRESP,d,0,3,3,3,0,3,3,3,,,,,,,,,,,,,,,1004.5579185869974,None,1005.0578249809987,None,1007.0578495029986,None,1007.807794979999,None,1008.0575958230002,None,1008.0575958230002,None,d,0,0.829431044,1008.0575958230002,None,1008.9078193169989,None,1008.9078193169989,None,d,0.251153527,1008.9078193169989,None,1009.1909557049985,None,,,,,sub-05,06/04/1998,2: Female,09/09/2023,001,1: right,2023_Sep_09_1424,[FINAL]_fmri_multiplication,2021.2.3,59.90172451165504
block4.xlsx,58.6,7.5,4.4,6 x 3,18,7,6 x 3 = 18,small-sized_high-interference,small-sized,high-interference,8,CorrectRESP,a,0,3,3,3,0,4,4,4,,,,,,,,,,,,,,,1012.9907206699972,None,1013.4906330349986,None,1015.490899,None,1016.2405759699977,None,1016.4906582419972,None,1016.4906582419972,None,a,0,0.5804405359995144,1016.4906582419972,None,1017.0902296459972,None,1017.0902296459972,None,d,0.3569097180006793,1017.0902296459972,None,1017.4738864679966,None,,,,,sub-05,06/04/1998,2: Female,09/09/2023,001,1: right,2023_Sep_09_1424,[FINAL]_fmri_multiplication,2021.2.3,59.90172451165504
block4.xlsx,70.5,7.5,2.6,4 x 9,32,20,4 x 9 = 32,large-sized_high-interference,large-sized,high-interference,9,IncorrectRESP,d,0,3,3,3,0,5,5,5,,,,,,,,,,,,,,,1021.8740120559996,None,1022.3742528759976,None,1024.3741087229973,None,1025.1239504789992,None,1025.3741322329988,None,1025.3741322329988,None,d,0,0.7609452220021922,1025.3741322329988,None,1026.1572100389967,None,1026.1572100389967,None,d,0.2739016300001822,1026.1572100389967,None,1026.4571801999991,None,,,,,sub-05,06/04/1998,2: Female,09/09/2023,001,1: right,2023_Sep_09_1424,[FINAL]_fmri_multiplication,2021.2.3,59.90172451165504
block4.xlsx,80.6,7.5,9.4,3 x 4,15,9,3 x 4 = 15,small-sized_high-interference,small-sized,high-interference,10,IncorrectRESP,d,0,3,3,3,0,6,6,6,,,,,,,,,,,,,,,1029.0567647849966,None,1029.5580065579998,None,1031.5573955799991,None,1032.3069693329999,None,1032.5579789279982,None,1032.5579789279982,None,d,0,1.0890571650015772,1032.5579789279982,None,1033.6733231619983,None,1033.6733231619983,None,d,0.4617764659997192,1033.6733231619983,None,1034.1571359519985,None,,,,,sub-05,06/04/1998,2: Female,09/09/2023,001,1: right,2023_Sep_09_1424,[FINAL]_fmri_multiplication,2021.2.3,59.90172451165504
block4.xlsx,97.5,7.5,6,6 x 6,36,13,6 x 6 = 36,large-sized_low-interference,large-sized,low-interference,4,CorrectRESP,a,0,3,3,3,0,7,7,7,,,,,,,,,,,,,,,1043.5572938789992,None,1044.0577450889978,None,1046.0574418949982,None,1046.8074056309997,None,1047.057560899997,None,1047.057560899997,None,a,0,0.7014179569996486,1047.057560899997,None,1047.790486695998,None,1047.790486695998,None,d,0.3844983269991644,1047.790486695998,None,1048.2074140799996,None,,,,,sub-05,06/04/1998,2: Female,09/09/2023,001,1: right,2023_Sep_09_1424,[FINAL]_fmri_multiplication,2021.2.3,59.90172451165504
block4.xlsx,111,7.5,5.8,7 x 6,42,23,7 x 6 = 42,large-sized_high-interference,large-sized,high-interference,22,CorrectRESP,a,0,3,3,3,0,8,8,8,,,,,,,,,,,,,,,1054.2073443659974,None,1054.7072122829995,None,1056.7075303059974,None,1057.4573254399984,None,1057.7074323460001,None,1057.7074323460001,None,a,0,0.5476332230027765,1057.7074323460001,None,1058.2738640779971,None,1058.2738640779971,None,d,0.34120688999973936,1058.2738640779971,None,1058.6402891079997,None,,,,,sub-05,06/04/1998,2: Female,09/09/2023,001,1: right,2023_Sep_09_1424,[FINAL]_fmri_multiplication,2021.2.3,59.90172451165504
block4.xlsx,124.3,7.5,3.6,6 x 4,28,10,6 x 4 = 28,small-sized_high-interference,small-sized,high-interference,12,IncorrectRESP,d,0,3,3,3,0,9,9,9,,,,,,,,,,,,,,,1064.4405582399995,None,1064.940621939997,None,1066.9406758549994,None,1067.6907676169976,None,1067.9411364129992,None,1067.9411364129992,None,d,0,0.761862318,1067.9411364129992,None,1068.7238058589974,None,1068.7238058589974,None,d,0.33929325,1068.7238058589974,None,1069.0903524809983,None,,,,,sub-05,06/04/1998,2: Female,09/09/2023,001,1: right,2023_Sep_09_1424,[FINAL]_fmri_multiplication,2021.2.3,59.90172451165504
block4.xlsx,135.4,7.5,9.3,5 x 5,30,3,5 x 5 = 30,small-sized_low-interference,small-sized,low-interference,3,IncorrectRESP,d,0,3,3,3,0,10,10,10,,,,,,,,,,,,,,,1072.6905998639995,None,1073.190855468998,None,1075.1912763239998,None,1075.941097,None,1076.1915275089996,None,1076.1915275089996,None,d,0,1.0315762250029366,1076.1915275089996,None,1077.241517,None,1077.241517,None,d,0.2854611439979635,1077.241517,None,1077.5577338139992,None,,,,,sub-05,06/04/1998,2: Female,09/09/2023,001,1: right,2023_Sep_09_1424,[FINAL]_fmri_multiplication,2021.2.3,59.90172451165504
block4.xlsx,152.2,7.5,9.8,7 x 3,21,11,7 x 3 = 21,small-sized_high-interference,small-sized,high-interference,13,CorrectRESP,a,0,3,3,3,0,11,11,11,,,,,,,,,,,,,,,1086.8569060629998,None,1087.3572823849972,None,1089.3573183769986,None,1090.1073766249974,None,1090.357663278999,None,1090.357663278999,None,a,0,0.8093301219996647,1090.357663278999,None,1091.1902041529975,None,1091.1902041529975,None,d,0.28893566799888504,1091.1902041529975,None,1091.5074124629973,None,,,,,sub-05,06/04/1998,2: Female,09/09/2023,001,1: right,2023_Sep_09_1424,[FINAL]_fmri_multiplication,2021.2.3,59.90172451165504
block4.xlsx,169.5,7.5,12.8,9 x 9,72,16,9 x 9 = 72,large-sized_low-interference,large-sized,low-interference,6,IncorrectRESP,d,0,3,3,3,0,12,12,12,,,,,,,,,,,,,,,1101.3074666619978,None,1101.8074839919973,None,1103.8074926279987,None,1104.5574109909976,None,1104.8076982059974,None,1104.8076982059974,None,d,0,0.7192694089972065,1104.8076982059974,None,1105.5547762979986,None,1105.5547762979986,None,d,0.30019871299737133,1105.5547762979986,None,1105.8738787809998,None,,,,,sub-05,06/04/1998,2: Female,09/09/2023,001,1: right,2023_Sep_09_1424,[FINAL]_fmri_multiplication,2021.2.3,59.90172451165504
block4.xlsx,189.8,7.5,8.9,4 x 4,20,4,4 x 4 = 20,small-sized_low-interference,small-sized,low-interference,5,IncorrectRESP,d,0,3,3,3,0,13,13,13,,,,,,,,,,,,,,,1118.6735506609984,None,1119.1738964689976,None,1121.1741047039977,None,1121.9239506599988,None,1122.1739350999997,None,1122.1739350999997,None,d,0,0.5850622319994727,1122.1739350999997,None,1122.7910289819993,None,1122.7910289819993,None,d,0.3279772999994748,1122.7910289819993,None,1123.1401974189976,None,,,,,sub-05,06/04/1998,2: Female,09/09/2023,001,1: right,2023_Sep_09_1424,[FINAL]_fmri_multiplication,2021.2.3,59.90172451165504
block4.xlsx,206.2,7.5,2.4,5 x 8,45,21,5 x 8 = 45,large-sized_high-interference,large-sized,high-interference,9,IncorrectRESP,d,0,3,3,3,0,14,14,14,,,,,,,,,,,,,,,1132.0402268109974,None,1132.5410985229973,None,1134.5406839349998,None,1135.2907021009996,None,1135.5406794289993,None,1135.5406794289993,None,d,0,0.7143896009984019,1135.5406794289993,None,1136.2740011329988,None,1136.2740011329988,None,d,0.36508589499862865,1136.2740011329988,None,1136.6568791249993,None,,,,,sub-05,06/04/1998,2: Female,09/09/2023,001,1: right,2023_Sep_09_1424,[FINAL]_fmri_multiplication,2021.2.3,59.90172451165504
block4.xlsx,216.1,7.5,14,8 x 2,16,5,8 x 2 = 16,small-sized_low-interference,small-sized,low-interference,7,CorrectRESP,a,0,3,3,3,0,15,15,15,,,,,,,,,,,,,,,1139.0575639449999,None,1139.557529067999,None,1141.5575432799997,None,1142.304770800998,None,1142.5497248659995,None,1142.5497248659995,None,a,0,0.537291708,1142.5497248659995,None,1143.1074241239985,None,1143.1074241239985,None,d,0.33966177600086667,1143.1074241239985,None,1143.4740660259995,None,,,,,sub-05,06/04/1998,2: Female,09/09/2023,001,1: right,2023_Sep_09_1424,[FINAL]_fmri_multiplication,2021.2.3,59.90172451165504
block4.xlsx,237.6,7.5,5.2,7 x 5,35,17,7 x 5 = 35,large-sized_low-interference,large-sized,low-interference,7,CorrectRESP,a,0,3,3,3,0,16,16,16,,,,,,,,,,,,,,,1157.4735654689975,None,1157.9742300009966,None,1159.9740438879999,None,1160.723719415997,None,1160.9745433779972,None,1160.9745433779972,None,a,0,0.7284744499993394,1160.9745433779972,None,1161.7227581159968,None,1161.7227581159968,None,d,0.35635995299890055,1161.7227581159968,None,1162.1073410109966,None,,,,,sub-05,06/04/1998,2: Female,09/09/2023,001,1: right,2023_Sep_09_1424,[FINAL]_fmri_multiplication,2021.2.3,59.90172451165504
block4.xlsx,250.3,7.5,9.6,8 x 7,63,22,8 x 7 = 63,large-sized_high-interference,large-sized,high-interference,9,IncorrectRESP,d,0,3,3,3,0,17,17,17,,,,,,,,,,,,,,,1167.306944967997,None,1167.8071550199966,None,1169.807356944999,None,1170.5572418299998,None,1170.8214094549985,None,1170.8214094549985,None,d,0,0.7936206220001623,1170.8214094549985,None,1171.6400219899988,None,1171.6400219899988,None,d,0.31103333300052327,1171.6400219899988,None,1171.973487602998,None,,,,,sub-05,06/04/1998,2: Female,09/09/2023,001,1: right,2023_Sep_09_1424,[FINAL]_fmri_multiplication,2021.2.3,59.90172451165504
block4.xlsx,267.4,7.5,2.6,2 x 9,16,2,2 x 9 = 16,small-sized_low-interference,small-sized,low-interference,7,IncorrectRESP,d,0,3,3,3,0,18,18,18,,,,,,,,,,,,,,,1181.574453983998,None,1182.0750563989968,None,1184.0744641359997,None,1184.8242836299978,None,1185.0742909109977,None,1185.0742909109977,None,d,0,0.6526804530003574,1185.0742909109977,None,1185.7578287959986,None,1185.7578287959986,None,d,0.3052746819994354,1185.7578287959986,None,1186.0902736499993,None,,,,,sub-05,06/04/1998,2: Female,09/09/2023,001,1: right,2023_Sep_09_1424,[FINAL]_fmri_multiplication,2021.2.3,59.90172451165504
block4.xlsx,277.5,7.5,2.3,9 x 3,27,19,9 x 3 = 27,large-sized_high-interference,large-sized,high-interference,9,CorrectRESP,a,0,3,3,3,0,19,19,19,,,,,,,,,,,,,,,1188.6902448049987,None,1189.1907025149994,None,1191.1908669859986,None,1191.9407503199982,None,1192.191431010997,None,1192.191431010997,None,a,0,0.6476822049990005,1192.191431010997,None,1192.8575152349986,None,1192.8575152349986,None,d,0.2934850950005057,1192.8575152349986,None,1193.1734688329998,None,,,,,sub-05,06/04/1998,2: Female,09/09/2023,001,1: right,2023_Sep_09_1424,[FINAL]_fmri_multiplication,2021.2.3,59.90172451165504
block4.xlsx,287.3,7.5,3.1,4 x 5,16,8,4 x 5 = 16,small-sized_high-interference,small-sized,high-interference,8,IncorrectRESP,d,0,3,3,3,0,20,20,20,,,,,,,,,,,,,,,1195.4735622169974,None,1195.9743758969998,None,1197.974073862999,None,1198.724049786997,None,1198.9741908589967,None,1198.9741908589967,None,d,0,0.696848191,1198.9741908589967,None,1199.6904199089986,None,1199.6904199089986,None,d,0.3167231459992763,1199.6904199089986,None,1200.0235581369998,None,,,,,sub-05,06/04/1998,2: Female,09/09/2023,001,1: right,2023_Sep_09_1424,[FINAL]_fmri_multiplication,2021.2.3,59.90172451165504
block4.xlsx,297.9,7.5,2.7,7 x 7,49,18,7 x 7 = 49,large-sized_low-interference,large-sized,low-interference,7,CorrectRESP,a,0,3,3,3,0,21,21,21,,,,,,,,,,,,,,,1203.1234949089994,None,1203.624338,None,1205.6239975339995,None,1206.374172345997,None,1206.6244866689995,None,1206.6244866689995,None,a,0,0.686551065,1206.6244866689995,None,1207.3409808889992,None,1207.3409808889992,None,d,0.28214005200061365,1207.3409808889992,None,1207.6402294099971,None,,,,,sub-05,06/04/1998,2: Female,09/09/2023,001,1: right,2023_Sep_09_1424,[FINAL]_fmri_multiplication,2021.2.3,59.90172451165504
block4.xlsx,308.1,7.5,4.8,7 x 2,14,1,7 x 2 = 14,small-sized_low-interference,small-sized,low-interference,4,CorrectRESP,a,0,3,3,3,0,22,22,22,,,,,,,,,,,,,,,1210.3407772859973,None,1210.8406092629994,None,1212.8407900019993,None,1213.5912627359976,None,1213.8415525349992,None,1213.8415525349992,None,a,0,0.5735186290003185,1213.8415525349992,None,1214.440433,None,1214.440433,None,d,0.27859071400234825,1214.440433,None,1214.7407365079998,None,,,,,sub-05,06/04/1998,2: Female,09/09/2023,001,1: right,2023_Sep_09_1424,[FINAL]_fmri_multiplication,2021.2.3,59.90172451165504
block4.xlsx,320.4,7.5,7.1,3 x 8,24,12,3 x 8 = 24,small-sized_high-interference,small-sized,high-interference,13,CorrectRESP,a,0,3,3,3,0,23,23,23,,,,,,,,,,,,,,,1219.5410086109987,None,1220.0412741789987,None,1222.0406202589984,None,1222.7906170959977,None,1223.0405438229973,None,1223.0405438229973,None,a,0,0.4545865279978898,1223.0405438229973,None,1223.5235628129994,None,1223.5235628129994,None,d,0.2514124859990261,1223.5235628129994,None,1223.8074347639995,None,,,,,sub-05,06/04/1998,2: Female,09/09/2023,001,1: right,2023_Sep_09_1424,[FINAL]_fmri_multiplication,2021.2.3,59.90172451165504
block4.xlsx,,,,,,,,,,,,,,0,3,3,3,,,,,0,0,0,0,,,,,,,,,,,,,,,,,,,,,,,,,,,,,,,,,,,,,,1230.908589311999,None,1230.908589311999,None,sub-05,06/04/1998,2: Female,09/09/2023,001,1: right,2023_Sep_09_1424,[FINAL]_fmri_multiplication,2021.2.3,59.90172451165504
block4.xlsx,,,,,,,,,,,,,,0,3,3,3,,,,,1,0,1,0,,,,,,,,,,,,,,,,,,,,,,,,,,,,,,,,,,,,,,1231.924521629997,None,1231.924521629997,None,sub-05,06/04/1998,2: Female,09/09/2023,001,1: right,2023_Sep_09_1424,[FINAL]_fmri_multiplication,2021.2.3,59.90172451165504
block4.xlsx,,,,,,,,,,,,,,0,3,3,3,,,,,2,0,2,0,,,,,,,,,,,,,,,,,,,,,,,,,,,,,,,,,,,,,,1232.9242079519972,None,1232.9242079519972,None,sub-05,06/04/1998,2: Female,09/09/2023,001,1: right,2023_Sep_09_1424,[FINAL]_fmri_multiplication,2021.2.3,59.90172451165504
block4.xlsx,,,,,,,,,,,,,,0,3,3,3,,,,,3,0,3,0,,,,,,,,,,,,,,,,,,,,,,,,,,,,,,,,,,,,,,1233.924078275999,None,1233.924078275999,None,sub-05,06/04/1998,2: Female,09/09/2023,001,1: right,2023_Sep_09_1424,[FINAL]_fmri_multiplication,2021.2.3,59.90172451165504
block4.xlsx,,,,,,,,,,,,,,0,3,3,3,,,,,4,0,4,0,,,,,,,,,,,,,,,,,,,,,,,,,,,,,,,,,,,,,,1234.9242773320002,None,1234.9242773320002,None,sub-05,06/04/1998,2: Female,09/09/2023,001,1: right,2023_Sep_09_1424,[FINAL]_fmri_multiplication,2021.2.3,59.90172451165504
block4.xlsx,,,,,,,,,,,,,,0,3,3,3,,,,,5,0,5,0,,,,,,,,,,,,,,,,,,,,,,,,,,,,,,,,,,,,,,1235.924650648998,None,1235.924650648998,None,sub-05,06/04/1998,2: Female,09/09/2023,001,1: right,2023_Sep_09_1424,[FINAL]_fmri_multiplication,2021.2.3,59.90172451165504
block4.xlsx,,,,,,,,,,,,,,0,3,3,3,,,,,6,0,6,0,,,,,,,,,,,,,,,,,,,,,,,,,,,,,,,,,,,,,,1236.924344,None,1236.924344,None,sub-05,06/04/1998,2: Female,09/09/2023,001,1: right,2023_Sep_09_1424,[FINAL]_fmri_multiplication,2021.2.3,59.90172451165504
block4.xlsx,,,,,,,,,,,,,,0,3,3,3,,,,,7,0,7,0,,,,,,,,,,,,,,,,,,,,,,,,,,,,,,,,,,,,,,1237.9253494009972,None,1237.9253494009972,None,sub-05,06/04/1998,2: Female,09/09/2023,001,1: right,2023_Sep_09_1424,[FINAL]_fmri_multiplication,2021.2.3,59.90172451165504
block4.xlsx,,,,,,,,,,,,,,0,3,3,3,,,,,8,0,8,0,,,,,,,,,,,,,,,,,,,,,,,,,,,,,,,,,,,,,,1238.9247856490001,None,1238.9247856490001,None,sub-05,06/04/1998,2: Female,09/09/2023,001,1: right,2023_Sep_09_1424,[FINAL]_fmri_multiplication,2021.2.3,59.90172451165504
block4.xlsx,,,,,,,,,,,,,,0,3,3,3,,,,,9,0,9,0,,,,,,,,,,,,,,,,,,,,,,,,,,,,,,,,,,,,,,1239.9253663119998,None,1239.9253663119998,None,sub-05,06/04/1998,2: Female,09/09/2023,001,1: right,2023_Sep_09_1424,[FINAL]_fmri_multiplication,2021.2.3,59.90172451165504
block4.xlsx,,,,,,,,,,,,,,0,3,3,3,,,,,10,0,10,0,,,,,,,,,,,,,,,,,,,,,,,,,,,,,,,,,,,,,,1240.9249580709984,None,1240.9249580709984,None,sub-05,06/04/1998,2: Female,09/09/2023,001,1: right,2023_Sep_09_1424,[FINAL]_fmri_multiplication,2021.2.3,59.90172451165504
block4.xlsx,,,,,,,,,,,,,,0,3,3,3,,,,,11,0,11,0,,,,,,,,,,,,,,,,,,,,,,,,,,,,,,,,,,,,,,1241.9247946809992,None,1241.9247946809992,None,sub-05,06/04/1998,2: Female,09/09/2023,001,1: right,2023_Sep_09_1424,[FINAL]_fmri_multiplication,2021.2.3,59.90172451165504
block4.xlsx,,,,,,,,,,,,,,0,3,3,3,,,,,12,0,12,0,,,,,,,,,,,,,,,,,,,,,,,,,,,,,,,,,,,,,,1242.9250201389987,None,1242.9250201389987,None,sub-05,06/04/1998,2: Female,09/09/2023,001,1: right,2023_Sep_09_1424,[FINAL]_fmri_multiplication,2021.2.3,59.90172451165504
block4.xlsx,,,,,,,,,,,,,,0,3,3,3,,,,,13,0,13,0,,,,,,,,,,,,,,,,,,,,,,,,,,,,,,,,,,,,,,1243.9241033679973,None,1243.9241033679973,None,sub-05,06/04/1998,2: Female,09/09/2023,001,1: right,2023_Sep_09_1424,[FINAL]_fmri_multiplication,2021.2.3,59.90172451165504
block4.xlsx,,,,,,,,,,,,,,0,3,3,3,,,,,14,0,14,0,,,,,,,,,,,,,,,,,,,,,,,,,,,,,,,,,,,,,,1244.9250455229994,None,1244.9250455229994,None,sub-05,06/04/1998,2: Female,09/09/2023,001,1: right,2023_Sep_09_1424,[FINAL]_fmri_multiplication,2021.2.3,59.90172451165504
block4.xlsx,,,,,,,,,,,,,,0,3,3,3,,,,,15,0,15,0,,,,,,,,,,,,,,,,,,,,,,,,,,,,,,,,,,,,,,1245.9275258799971,None,1245.9275258799971,None,sub-05,06/04/1998,2: Female,09/09/2023,001,1: right,2023_Sep_09_1424,[FINAL]_fmri_multiplication,2021.2.3,59.90172451165504
block4.xlsx,,,,,,,,,,,,,,0,3,3,3,,,,,16,0,16,0,,,,,,,,,,,,,,,,,,,,,,,,,,,,,,,,,,,,,,1246.9256617799983,None,1246.9256617799983,None,sub-05,06/04/1998,2: Female,09/09/2023,001,1: right,2023_Sep_09_1424,[FINAL]_fmri_multiplication,2021.2.3,59.90172451165504
block4.xlsx,,,,,,,,,,,,,,0,3,3,3,,,,,17,0,17,0,,,,,,,,,,,,,,,,,,,,,,,,,,,,,,,,,,,,,,1247.9096916299968,None,1247.9096916299968,None,sub-05,06/04/1998,2: Female,09/09/2023,001,1: right,2023_Sep_09_1424,[FINAL]_fmri_multiplication,2021.2.3,59.90172451165504
block4.xlsx,,,,,,,,,,,,,,0,3,3,3,,,,,18,0,18,0,,,,,,,,,,,,,,,,,,,,,,,,,,,,,,,,,,,,,,1248.925520509998,None,1248.925520509998,None,sub-05,06/04/1998,2: Female,09/09/2023,001,1: right,2023_Sep_09_1424,[FINAL]_fmri_multiplication,2021.2.3,59.90172451165504
block4.xlsx,,,,,,,,,,,,,,0,3,3,3,,,,,19,0,19,0,,,,,,,,,,,,,,,,,,,,,,,,,,,,,,,,,,,,,,1249.925197714998,None,1249.925197714998,None,sub-05,06/04/1998,2: Female,09/09/2023,001,1: right,2023_Sep_09_1424,[FINAL]_fmri_multiplication,2021.2.3,59.90172451165504
block4.xlsx,,,,,,,,,,,,,,0,3,3,3,,,,,20,0,20,0,,,,,,,,,,,,,,,,,,,,,,,,,,,,,,,,,,,,,,1250.9252749480002,None,1250.9252749480002,None,sub-05,06/04/1998,2: Female,09/09/2023,001,1: right,2023_Sep_09_1424,[FINAL]_fmri_multiplication,2021.2.3,59.90172451165504
block4.xlsx,,,,,,,,,,,,,,0,3,3,3,,,,,21,0,21,0,,,,,,,,,,,,,,,,,,,,,,,,,,,,,,,,,,,,,,1251.9260445359978,None,1251.9260445359978,None,sub-05,06/04/1998,2: Female,09/09/2023,001,1: right,2023_Sep_09_1424,[FINAL]_fmri_multiplication,2021.2.3,59.90172451165504
block4.xlsx,,,,,,,,,,,,,,0,3,3,3,,,,,22,0,22,0,,,,,,,,,,,,,,,,,,,,,,,,,,,,,,,,,,,,,,1252.9253901379998,None,1252.9253901379998,None,sub-05,06/04/1998,2: Female,09/09/2023,001,1: right,2023_Sep_09_1424,[FINAL]_fmri_multiplication,2021.2.3,59.90172451165504
block4.xlsx,,,,,,,,,,,,,,0,3,3,3,,,,,23,0,23,0,,,,,,,,,,,,,,,,,,,,,,,,,,,,,,,,,,,,,,1253.924676,None,1253.924676,None,sub-05,06/04/1998,2: Female,09/09/2023,001,1: right,2023_Sep_09_1424,[FINAL]_fmri_multiplication,2021.2.3,59.90172451165504
block4.xlsx,,,,,,,,,,,,,,0,3,3,3,,,,,24,0,24,0,,,,,,,,,,,,,,,,,,,,,,,,,,,,,,,,,,,,,,1254.9250028069982,None,1254.9250028069982,None,sub-05,06/04/1998,2: Female,09/09/2023,001,1: right,2023_Sep_09_1424,[FINAL]_fmri_multiplication,2021.2.3,59.90172451165504
block4.xlsx,,,,,,,,,,,,,,0,3,3,3,,,,,25,0,25,0,,,,,,,,,,,,,,,,,,,,,,,,,,,,,,,,,,,,,,1255.9245188599998,None,1255.9245188599998,None,sub-05,06/04/1998,2: Female,09/09/2023,001,1: right,2023_Sep_09_1424,[FINAL]_fmri_multiplication,2021.2.3,59.90172451165504
block4.xlsx,,,,,,,,,,,,,,0,3,3,3,,,,,26,0,26,0,,,,,,,,,,,,,,,,,,,,,,,,,,,,,,,,,,,,,,1256.9240875369978,None,1256.9240875369978,None,sub-05,06/04/1998,2: Female,09/09/2023,001,1: right,2023_Sep_09_1424,[FINAL]_fmri_multiplication,2021.2.3,59.90172451165504
block4.xlsx,,,,,,,,,,,,,,0,3,3,3,,,,,27,0,27,0,,,,,,,,,,,,,,,,,,,,,,,,,,,,,,,,,,,,,,1257.9240099769995,None,1257.9240099769995,None,sub-05,06/04/1998,2: Female,09/09/2023,001,1: right,2023_Sep_09_1424,[FINAL]_fmri_multiplication,2021.2.3,59.90172451165504
block4.xlsx,,,,,,,,,,,,,,0,3,3,3,,,,,28,0,28,0,,,,,,,,,,,,,,,,,,,,,,,,,,,,,,,,,,,,,,1258.9229276439983,None,1258.9229276439983,None,sub-05,06/04/1998,2: Female,09/09/2023,001,1: right,2023_Sep_09_1424,[FINAL]_fmri_multiplication,2021.2.3,59.90172451165504
block4.xlsx,,,,,,,,,,,,,,0,3,3,3,,,,,29,0,29,0,,,,,,,,,,,,,,,,,,,,,,,,,,,,,,,,,,,,,,1259.923054529998,None,1259.923054529998,None,sub-05,06/04/1998,2: Female,09/09/2023,001,1: right,2023_Sep_09_1424,[FINAL]_fmri_multiplication,2021.2.3,59.90172451165504
block4.xlsx,,,,,,,,,,,,,,0,3,3,3,,,,,,,,,,,,,,,,,,,,,,,,,,,,,,,,,,,,,,,,,,,,,,,,,,sub-05,06/04/1998,2: Female,09/09/2023,001,1: right,2023_Sep_09_1424,[FINAL]_fmri_multiplication,2021.2.3,59.90172451165504