blocks_file,start,dur,rest,mult_problemB,mult_options,stim_trial,mult_stim,type,ProblemSize,InterferenceLH,InterferenceLevel,mult_type,corrRESP,blocks_set.thisRepN,blocks_set.thisTrialN,blocks_set.thisN,blocks_set.thisIndex,TRIALS.thisRepN,TRIALS.thisTrialN,TRIALS.thisN,TRIALS.thisIndex,timer_loop.thisRepN,timer_loop.thisTrialN,timer_loop.thisN,timer_loop.thisIndex,WAIT_TEXT.started,WAIT_TEXT.stopped,scan_start_trigger.keys,scan_start_trigger.rt,scan_start_trigger.started,scan_start_trigger.stopped,MAIN_SCREEN.started,MAIN_SCREEN.stopped,Block_Text.started,Block_Text.stopped,asterisk500ms.started,asterisk500ms.stopped,mult_question_text.started,mult_question_text.stopped,equal_text.started,equal_text.stopped,blank250_text.started,blank250_text.stopped,Mult_OPTION.started,Mult_OPTION.stopped,Mult_YN.started,Mult_YN.stopped,Mult_Resp.keys,Mult_Resp.corr,Mult_Resp.rt,Mult_Resp.started,Mult_Resp.stopped,Strategy_Q.started,Strategy_Q.stopped,Strategy_Option.started,Strategy_Option.stopped,Strategy_RESP.keys,Strategy_RESP.rt,Strategy_RESP.started,Strategy_RESP.stopped,jitters.started,jitters.stopped,resting_text.started,resting_text.stopped,countdown_timer.started,countdown_timer.stopped,End_Text.started,End_Text.stopped,fixation.started,fixation.stopped,fixation_end.keys,fixation_end.rt,fixation_end.started,fixation_end.stopped,participant,Date of birth (DD/MM/YEAR),gender,Testing Date (DD/MM/YEAR),session,handedness,date,expName,psychopyVersion,frameRate
,,,,,,,,,,,,,,,,,,,,,,,,,,32.710066835999896,None,s,17.721712159000163,32.710066835999896,None,,,,,,,,,,,,,,,,,,,,,,,,,,,,,,,,,,,,,,,,,,,,sub-08,10/12/2002,2: Female,25/09/2023,002,1: right,2023_Sep_25_1823,[FINAL]_fmri_multiplication,2021.2.3,59.981449417183796
block5.xlsx,10,7.5,4.6,3 x 6,18,7,6 x 3 = 18,small-sized_high-interference,small-sized,high-interference,8,CorrectRESP,a,0,0,0,0,0,0,0,0,,,,,,,,,,,50.45904849700037,None,55.48221381900021,None,65.50043716799973,None,65.97946260699973,None,67.97528833300021,None,68.72607936500026,None,68.97817972299981,None,68.97817972299981,None,d,0,0.399697073,68.97817972299981,None,69.40986833500028,None,69.40986833500028,None,d,0.5041137500002151,69.40986833500028,None,69.94230519499979,None,,,,,,,,,,,,,sub-08,10/12/2002,2: Female,25/09/2023,002,1: right,2023_Sep_25_1823,[FINAL]_fmri_multiplication,2021.2.3,59.981449417183796
block5.xlsx,22.1,7.5,7,9 x 9,72,16,9 x 9 = 72,large-sized_low-interference,large-sized,low-interference,6,IncorrectRESP,d,0,0,0,0,0,1,1,1,,,,,,,,,,,,,,,74.54230777199973,None,75.04389241599984,None,77.05950819900045,None,77.80952553200041,None,78.06294565400003,None,78.06294565400003,None,a,0,0.49892483500025264,78.06294565400003,None,78.59307913599969,None,78.59307913599969,None,d,0.3128656319995571,78.59307913599969,None,78.92566560100022,None,,,,,,,,,,,,,sub-08,10/12/2002,2: Female,25/09/2023,002,1: right,2023_Sep_25_1823,[FINAL]_fmri_multiplication,2021.2.3,59.981449417183796
block5.xlsx,36.6,7.5,4.4,2 x 6,12,6,6 x 2 = 12,small-sized_low-interference,small-sized,low-interference,3,CorrectRESP,a,0,0,0,0,0,2,2,2,,,,,,,,,,,,,,,85.92610072400021,None,86.42681340800027,None,88.42654169100024,None,89.17635155300013,None,89.42678589299976,None,89.42678589299976,None,d,0,0.35910669599979883,89.42678589299976,None,89.80915634200028,None,89.80915634200028,None,d,0.18472697299966967,89.80915634200028,None,90.02601387800041,None,,,,,,,,,,,,,sub-08,10/12/2002,2: Female,25/09/2023,002,1: right,2023_Sep_25_1823,[FINAL]_fmri_multiplication,2021.2.3,59.981449417183796
block5.xlsx,48.5,7.5,9.6,8 x 3,24,12,3 x 8 = 24,small-sized_high-interference,small-sized,high-interference,13,CorrectRESP,a,0,0,0,0,0,3,3,3,,,,,,,,,,,,,,,94.42613471200002,None,94.92583223099973,None,96.92612954299966,None,97.67610217200036,None,97.92741068800024,None,97.92741068800024,None,d,0,0.4504608200004441,97.92741068800024,None,98.40954477200012,None,98.40954477200012,None,d,0.16831930500029557,98.40954477200012,None,98.60934518700014,None,,,,,,,,,,,,,sub-08,10/12/2002,2: Female,25/09/2023,002,1: right,2023_Sep_25_1823,[FINAL]_fmri_multiplication,2021.2.3,59.981449417183796
block5.xlsx,65.6,7.5,5.4,5 x 5,30,3,5 x 5 = 30,small-sized_low-interference,small-sized,low-interference,3,IncorrectRESP,d,0,0,0,0,0,4,4,4,,,,,,,,,,,,,,,108.20883571600007,None,108.7101604290001,None,110.70898473899979,None,111.45941975599999,None,111.71081471599973,None,111.71081471599973,None,a,0,0.6270955009995305,111.71081471599973,None,112.3575901,None,112.3575901,None,d,0.15620731099988916,112.3575901,None,112.54279284299992,None,,,,,,,,,,,,,sub-08,10/12/2002,2: Female,25/09/2023,002,1: right,2023_Sep_25_1823,[FINAL]_fmri_multiplication,2021.2.3,59.981449417183796
block5.xlsx,78.5,7.5,7.7,3 x 9,27,19,9 x 3 = 27,large-sized_high-interference,large-sized,high-interference,9,CorrectRESP,a,0,0,0,0,0,5,5,5,,,,,,,,,,,,,,,117.94135716399978,None,118.44448647799982,None,120.45972262499981,None,121.20992775800005,None,121.45961195099972,None,121.45961195099972,None,d,0,0.4223944230006964,121.45961195099972,None,121.90967547200034,None,121.90967547200034,None,d,0.18023281000023417,121.90967547200034,None,122.10944107500018,None,,,,,,,,,,,,,sub-08,10/12/2002,2: Female,25/09/2023,002,1: right,2023_Sep_25_1823,[FINAL]_fmri_multiplication,2021.2.3,59.981449417183796
block5.xlsx,93.7,7.5,3.5,2 x 8,18,5,8 x 2 = 18,small-sized_low-interference,small-sized,low-interference,7,IncorrectRESP,d,0,0,0,0,0,6,6,6,,,,,,,,,,,,,,,129.8095610419996,None,130.32596494399968,None,132.3258669349998,None,133.07581451900023,None,133.32601505399998,None,133.32601505399998,None,a,0,0.5640158500000325,133.32601505399998,None,133.90883633700014,None,133.90883633700014,None,d,0.12514100299995334,133.90883633700014,None,134.05896287399992,None,,,,,,,,,,,,,sub-08,10/12/2002,2: Female,25/09/2023,002,1: right,2023_Sep_25_1823,[FINAL]_fmri_multiplication,2021.2.3,59.981449417183796
block5.xlsx,104.7,7.5,6.4,7 x 7,49,18,7 x 7 = 49,large-sized_low-interference,large-sized,low-interference,7,CorrectRESP,a,0,0,0,0,0,7,7,7,,,,,,,,,,,,,,,137.55931812899962,None,138.05823172100008,None,140.05919833000007,None,140.80939692100037,None,141.05907987400042,None,141.05907987400042,None,d,0,0.40687272700051835,141.05907987400042,None,141.49234184499983,None,141.49234184499983,None,d,0.17358506299933651,141.49234184499983,None,141.69196330799969,None,,,,,,,,,,,,,sub-08,10/12/2002,2: Female,25/09/2023,002,1: right,2023_Sep_25_1823,[FINAL]_fmri_multiplication,2021.2.3,59.981449417183796
block5.xlsx,118.6,7.5,3.2,8 x 5,45,21,5 x 8 = 45,large-sized_high-interference,large-sized,high-interference,9,IncorrectRESP,d,0,0,0,0,0,8,8,8,,,,,,,,,,,,,,,148.0924317199997,None,148.59313810000003,None,150.5929166879996,None,151.34291057500013,None,151.59343991700007,None,151.59343991700007,None,a,0,0.6326009389995306,151.59343991700007,None,152.2433551969998,None,152.2433551969998,None,d,0.15053943800012348,152.2433551969998,None,152.42643234699972,None,,,,,,,,,,,,,sub-08,10/12/2002,2: Female,25/09/2023,002,1: right,2023_Sep_25_1823,[FINAL]_fmri_multiplication,2021.2.3,59.981449417183796
block5.xlsx,129.3,7.5,6.8,5 x 4,20,8,4 x 5 = 20,small-sized_high-interference,small-sized,high-interference,8,CorrectRESP,a,0,0,0,0,0,9,9,9,,,,,,,,,,,,,,,155.63896623999972,None,156.1433711,None,158.1434012210002,None,158.89260137899964,None,159.14372664500024,None,159.14372664500024,None,d,0,0.4582322979995297,159.14372664500024,None,159.62562512899967,None,159.62562512899967,None,d,0.19236111999998684,159.62562512899967,None,159.84252761399966,None,,,,,,,,,,,,,sub-08,10/12/2002,2: Female,25/09/2023,002,1: right,2023_Sep_25_1823,[FINAL]_fmri_multiplication,2021.2.3,59.981449417183796
block5.xlsx,143.6,7.5,5.5,6 x 5,30,14,5 x 6 = 30,large-sized_low-interference,large-sized,low-interference,6,CorrectRESP,a,0,0,0,0,0,10,10,10,,,,,,,,,,,,,,,166.64281940399997,None,167.14210083000035,None,169.14223683199998,None,169.89276285600045,None,170.1429411299996,None,170.1429411299996,None,d,0,0.4029992919995493,170.1429411299996,None,170.57604509999965,None,170.57604509999965,None,d,0.17789805500069633,170.57604509999965,None,170.77567652000016,None,,,,,,,,,,,,,sub-08,10/12/2002,2: Female,25/09/2023,002,1: right,2023_Sep_25_1823,[FINAL]_fmri_multiplication,2021.2.3,59.981449417183796
block5.xlsx,156.6,7.5,6,3 x 7,24,11,7 x 3 = 24,small-sized_high-interference,small-sized,high-interference,13,IncorrectRESP,d,0,0,0,0,0,11,11,11,,,,,,,,,,,,,,,176.27563874000043,None,176.7761583649999,None,178.77590732000044,None,179.52608312699977,None,179.7759539689996,None,179.7759539689996,None,a,0,0.4580219629997373,179.7759539689996,None,180.2587113540003,None,180.2587113540003,None,d,0.15922073899946554,180.2587113540003,None,180.44272322899997,None,,,,,,,,,,,,,sub-08,10/12/2002,2: Female,25/09/2023,002,1: right,2023_Sep_25_1823,[FINAL]_fmri_multiplication,2021.2.3,59.981449417183796
block5.xlsx,170.1,7.5,7.1,5 x 7,40,17,7 x 5 = 40,large-sized_low-interference,large-sized,low-interference,7,IncorrectRESP,d,0,0,0,0,0,12,12,12,,,,,,,,,,,,,,,186.44284373899973,None,186.9434846739996,None,188.94343993799976,None,189.69328961799965,None,189.9439367920004,None,189.9439367920004,None,a,0,0.5219970420002937,189.9439367920004,None,190.4929929480004,None,190.4929929480004,None,d,0.068873364,190.4929929480004,None,190.59338598199975,None,,,,,,,,,,,,,sub-08,10/12/2002,2: Female,25/09/2023,002,1: right,2023_Sep_25_1823,[FINAL]_fmri_multiplication,2021.2.3,59.981449417183796
block5.xlsx,184.7,7.5,5.3,4 x 6,28,10,6 x 4 = 28,small-sized_high-interference,small-sized,high-interference,12,IncorrectRESP,d,0,0,0,0,0,13,13,13,,,,,,,,,,,,,,,197.69306271999994,None,198.19294219400035,None,200.1928641530003,None,200.9428078230003,None,201.19282361499972,None,201.19282361499972,None,a,0,0.6251672719999988,201.19282361499972,None,201.8417272759998,None,201.8417272759998,None,d,0.1602423379999891,201.8417272759998,None,202.02628416300013,None,,,,,,,,,,,,,sub-08,10/12/2002,2: Female,25/09/2023,002,1: right,2023_Sep_25_1823,[FINAL]_fmri_multiplication,2021.2.3,59.981449417183796
block5.xlsx,197.5,7.5,4.2,2 x 7,14,1,7 x 2 = 14,small-sized_low-interference,small-sized,low-interference,4,CorrectRESP,a,0,0,0,0,0,14,14,14,,,,,,,,,,,,,,,207.32630185400012,None,207.82741746299962,None,209.84268294400044,None,210.5927644100002,None,210.8426763159996,None,210.8426763159996,None,d,0,0.5351928850004697,210.8426763159996,None,211.40956299000027,None,211.40956299000027,None,d,0.17633137600023474,211.40956299000027,None,211.60904809400017,None,,,,,,,,,,,,,sub-08,10/12/2002,2: Female,25/09/2023,002,1: right,2023_Sep_25_1823,[FINAL]_fmri_multiplication,2021.2.3,59.981449417183796
block5.xlsx,209.2,7.5,7.2,9 x 4,36,20,4 x 9 = 36,large-sized_high-interference,large-sized,high-interference,9,CorrectRESP,a,0,0,0,0,0,15,15,15,,,,,,,,,,,,,,,215.8088475759996,None,216.30883991100018,None,218.30943607900008,None,219.05954598900007,None,219.30790739199983,None,219.30790739199983,None,d,0,0.4459836429996358,219.30790739199983,None,219.77581859600014,None,219.77581859600014,None,d,0.17812259499987704,219.77581859600014,None,219.97584236900002,None,,,,,,,,,,,,,sub-08,10/12/2002,2: Female,25/09/2023,002,1: right,2023_Sep_25_1823,[FINAL]_fmri_multiplication,2021.2.3,59.981449417183796
block5.xlsx,223.9,7.5,4.3,4 x 4,20,4,4 x 4 = 20,small-sized_low-interference,small-sized,low-interference,5,IncorrectRESP,d,0,0,0,0,0,16,16,16,,,,,,,,,,,,,,,227.17660178300048,None,227.67628633799995,None,229.67653457800043,None,230.42649470200013,None,230.67686944999969,None,230.67686944999969,None,a,0,0.48498845099948085,230.67686944999969,None,231.19299266800044,None,231.19299266800044,None,d,0.10503538200009643,231.19299266800044,None,231.32600739400004,None,,,,,,,,,,,,,sub-08,10/12/2002,2: Female,25/09/2023,002,1: right,2023_Sep_25_1823,[FINAL]_fmri_multiplication,2021.2.3,59.981449417183796
block5.xlsx,235.7,7.5,9.9,6 x 7,48,23,7 x 6 = 48,large-sized_high-interference,large-sized,high-interference,22,IncorrectRESP,d,0,0,0,0,0,17,17,17,,,,,,,,,,,,,,,235.62618296599976,None,236.1244840039999,None,238.1263603690004,None,238.87616807199993,None,239.1260883320001,None,239.1260883320001,None,a,0,0.4997874889995728,239.1260883320001,None,239.6587988809997,None,239.6587988809997,None,d,0.11112595499980671,239.6587988809997,None,239.79232189400045,None,,,,,,,,,,,,,sub-08,10/12/2002,2: Female,25/09/2023,002,1: right,2023_Sep_25_1823,[FINAL]_fmri_multiplication,2021.2.3,59.981449417183796
block5.xlsx,253.1,7.5,3.1,9 x 2,18,2,2 x 9 = 18,small-sized_low-interference,small-sized,low-interference,7,CorrectRESP,a,0,0,0,0,0,18,18,18,,,,,,,,,,,,,,,249.69282338100038,None,250.19285432800007,None,252.19283516799987,None,252.94277670799966,None,253.19314410799961,None,253.19314410799961,None,d,0,0.37680284199996095,253.19314410799961,None,253.59221335599977,None,253.59221335599977,None,d,0.18565482600024552,253.59221335599977,None,253.80935217200022,None,,,,,,,,,,,,,sub-08,10/12/2002,2: Female,25/09/2023,002,1: right,2023_Sep_25_1823,[FINAL]_fmri_multiplication,2021.2.3,59.981449417183796
block5.xlsx,263.7,7.5,4.6,5 x 9,40,15,9 x 5 = 40,large-sized_low-interference,large-sized,low-interference,6,IncorrectRESP,d,0,0,0,0,0,19,19,19,,,,,,,,,,,,,,,256.9092197099999,None,257.4100982279997,None,259.4100204469996,None,260.1592904170002,None,260.4105460869996,None,260.4105460869996,None,a,0,0.6633663060001709,260.4105460869996,None,261.0925409470001,None,261.0925409470001,None,d,0.1413667599999826,261.0925409470001,None,261.2594279020004,None,,,,,,,,,,,,,sub-08,10/12/2002,2: Female,25/09/2023,002,1: right,2023_Sep_25_1823,[FINAL]_fmri_multiplication,2021.2.3,59.981449417183796
block5.xlsx,275.8,7.5,3.9,7 x 8,63,22,8 x 7 = 63,large-sized_high-interference,large-sized,high-interference,9,IncorrectRESP,d,0,0,0,0,0,20,20,20,,,,,,,,,,,,,,,265.85954671699983,None,266.35962068699973,None,268.3591173949999,None,269.1095264759997,None,269.35825033400033,None,269.35825033400033,None,a,0,0.6354698189998089,269.35825033400033,None,270.02584952600046,None,270.02584952600046,None,d,0.18400853300045128,270.02584952600046,None,270.2428844590004,None,,,,,,,,,,,,,sub-08,10/12/2002,2: Female,25/09/2023,002,1: right,2023_Sep_25_1823,[FINAL]_fmri_multiplication,2021.2.3,59.981449417183796
block5.xlsx,287.2,7.5,7.4,4 x 3,15,9,3 x 4 = 15,small-sized_high-interference,small-sized,high-interference,10,IncorrectRESP,d,0,0,0,0,0,21,21,21,,,,,,,,,,,,,,,274.1427524840001,None,274.6425384860004,None,276.64230318800037,None,277.39289743799964,None,277.6429094490004,None,277.6429094490004,None,a,0,0.8390682319995904,277.6429094490004,None,278.50916839799993,None,278.50916839799993,None,d,0.1728066060004494,278.50916839799993,None,278.7093478329998,None,,,,,,,,,,,,,sub-08,10/12/2002,2: Female,25/09/2023,002,1: right,2023_Sep_25_1823,[FINAL]_fmri_multiplication,2021.2.3,59.981449417183796
block5.xlsx,302.1,7.5,7.1,4 x 8,32,24,8 x 4 = 32,large-sized_high-interference,large-sized,high-interference,25,CorrectRESP,a,0,0,0,0,0,22,22,22,,,,,,,,,,,,,,,286.1093320099999,None,286.6092690329997,None,288.6094359669996,None,289.3595474869999,None,289.6098958,None,289.6098958,None,d,0,0.4721052319991941,289.6098958,None,290.1076758469999,None,290.1076758469999,None,d,0.19825382199996966,290.1076758469999,None,290.32525972999974,None,,,,,,,,,,,,,sub-08,10/12/2002,2: Female,25/09/2023,002,1: right,2023_Sep_25_1823,[FINAL]_fmri_multiplication,2021.2.3,59.981449417183796
block5.xlsx,316.7,7.5,10.8,6 x 6,36,13,6 x 6 = 36,large-sized_low-interference,large-sized,low-interference,4,CorrectRESP,a,0,0,0,0,0,23,23,23,,,,,,,,,,,,,,,297.42650379800034,None,297.92615483400004,None,299.9265807640004,None,300.67635163399973,None,300.9267716579998,None,300.9267716579998,None,d,0,0.44320342399987567,300.9267716579998,None,301.3923629239998,None,301.3923629239998,None,d,0.22564523500022915,301.3923629239998,None,301.6428133930003,None,,,,,,,,,,,,,sub-08,10/12/2002,2: Female,25/09/2023,002,1: right,2023_Sep_25_1823,[FINAL]_fmri_multiplication,2021.2.3,59.981449417183796
block5.xlsx,,,,,,,,,,,,,,0,0,0,0,,,,,0,0,0,0,,,,,,,,,,,,,,,,,,,,,,,,,,,,,,,,,,,,,,312.44544956699974,None,312.44544956699974,None,,,,,,,,,sub-08,10/12/2002,2: Female,25/09/2023,002,1: right,2023_Sep_25_1823,[FINAL]_fmri_multiplication,2021.2.3,59.981449417183796
block5.xlsx,,,,,,,,,,,,,,0,0,0,0,,,,,1,0,1,0,,,,,,,,,,,,,,,,,,,,,,,,,,,,,,,,,,,,,,313.46215116500025,None,313.46215116500025,None,,,,,,,,,sub-08,10/12/2002,2: Female,25/09/2023,002,1: right,2023_Sep_25_1823,[FINAL]_fmri_multiplication,2021.2.3,59.981449417183796
block5.xlsx,,,,,,,,,,,,,,0,0,0,0,,,,,2,0,2,0,,,,,,,,,,,,,,,,,,,,,,,,,,,,,,,,,,,,,,314.4600417470001,None,314.4600417470001,None,,,,,,,,,sub-08,10/12/2002,2: Female,25/09/2023,002,1: right,2023_Sep_25_1823,[FINAL]_fmri_multiplication,2021.2.3,59.981449417183796
block5.xlsx,,,,,,,,,,,,,,0,0,0,0,,,,,3,0,3,0,,,,,,,,,,,,,,,,,,,,,,,,,,,,,,,,,,,,,,315.4622099770004,None,315.4622099770004,None,,,,,,,,,sub-08,10/12/2002,2: Female,25/09/2023,002,1: right,2023_Sep_25_1823,[FINAL]_fmri_multiplication,2021.2.3,59.981449417183796
block5.xlsx,,,,,,,,,,,,,,0,0,0,0,,,,,4,0,4,0,,,,,,,,,,,,,,,,,,,,,,,,,,,,,,,,,,,,,,316.4604052020004,None,316.4604052020004,None,,,,,,,,,sub-08,10/12/2002,2: Female,25/09/2023,002,1: right,2023_Sep_25_1823,[FINAL]_fmri_multiplication,2021.2.3,59.981449417183796
block5.xlsx,,,,,,,,,,,,,,0,0,0,0,,,,,5,0,5,0,,,,,,,,,,,,,,,,,,,,,,,,,,,,,,,,,,,,,,317.45988247399964,None,317.45988247399964,None,,,,,,,,,sub-08,10/12/2002,2: Female,25/09/2023,002,1: right,2023_Sep_25_1823,[FINAL]_fmri_multiplication,2021.2.3,59.981449417183796
block5.xlsx,,,,,,,,,,,,,,0,0,0,0,,,,,6,0,6,0,,,,,,,,,,,,,,,,,,,,,,,,,,,,,,,,,,,,,,318.46043300600013,None,318.46043300600013,None,,,,,,,,,sub-08,10/12/2002,2: Female,25/09/2023,002,1: right,2023_Sep_25_1823,[FINAL]_fmri_multiplication,2021.2.3,59.981449417183796
block5.xlsx,,,,,,,,,,,,,,0,0,0,0,,,,,7,0,7,0,,,,,,,,,,,,,,,,,,,,,,,,,,,,,,,,,,,,,,319.45945028000006,None,319.45945028000006,None,,,,,,,,,sub-08,10/12/2002,2: Female,25/09/2023,002,1: right,2023_Sep_25_1823,[FINAL]_fmri_multiplication,2021.2.3,59.981449417183796
block5.xlsx,,,,,,,,,,,,,,0,0,0,0,,,,,8,0,8,0,,,,,,,,,,,,,,,,,,,,,,,,,,,,,,,,,,,,,,320.45928459599963,None,320.45928459599963,None,,,,,,,,,sub-08,10/12/2002,2: Female,25/09/2023,002,1: right,2023_Sep_25_1823,[FINAL]_fmri_multiplication,2021.2.3,59.981449417183796
block5.xlsx,,,,,,,,,,,,,,0,0,0,0,,,,,9,0,9,0,,,,,,,,,,,,,,,,,,,,,,,,,,,,,,,,,,,,,,321.473497,None,321.473497,None,,,,,,,,,sub-08,10/12/2002,2: Female,25/09/2023,002,1: right,2023_Sep_25_1823,[FINAL]_fmri_multiplication,2021.2.3,59.981449417183796
block5.xlsx,,,,,,,,,,,,,,0,0,0,0,,,,,10,0,10,0,,,,,,,,,,,,,,,,,,,,,,,,,,,,,,,,,,,,,,322.45990715900007,None,322.45990715900007,None,,,,,,,,,sub-08,10/12/2002,2: Female,25/09/2023,002,1: right,2023_Sep_25_1823,[FINAL]_fmri_multiplication,2021.2.3,59.981449417183796
block5.xlsx,,,,,,,,,,,,,,0,0,0,0,,,,,11,0,11,0,,,,,,,,,,,,,,,,,,,,,,,,,,,,,,,,,,,,,,323.4603909970001,None,323.4603909970001,None,,,,,,,,,sub-08,10/12/2002,2: Female,25/09/2023,002,1: right,2023_Sep_25_1823,[FINAL]_fmri_multiplication,2021.2.3,59.981449417183796
block5.xlsx,,,,,,,,,,,,,,0,0,0,0,,,,,12,0,12,0,,,,,,,,,,,,,,,,,,,,,,,,,,,,,,,,,,,,,,324.46022808399994,None,324.46022808399994,None,,,,,,,,,sub-08,10/12/2002,2: Female,25/09/2023,002,1: right,2023_Sep_25_1823,[FINAL]_fmri_multiplication,2021.2.3,59.981449417183796
block5.xlsx,,,,,,,,,,,,,,0,0,0,0,,,,,13,0,13,0,,,,,,,,,,,,,,,,,,,,,,,,,,,,,,,,,,,,,,325.4608803629999,None,325.4608803629999,None,,,,,,,,,sub-08,10/12/2002,2: Female,25/09/2023,002,1: right,2023_Sep_25_1823,[FINAL]_fmri_multiplication,2021.2.3,59.981449417183796
block5.xlsx,,,,,,,,,,,,,,0,0,0,0,,,,,14,0,14,0,,,,,,,,,,,,,,,,,,,,,,,,,,,,,,,,,,,,,,326.46099853600026,None,326.46099853600026,None,,,,,,,,,sub-08,10/12/2002,2: Female,25/09/2023,002,1: right,2023_Sep_25_1823,[FINAL]_fmri_multiplication,2021.2.3,59.981449417183796
block5.xlsx,,,,,,,,,,,,,,0,0,0,0,,,,,15,0,15,0,,,,,,,,,,,,,,,,,,,,,,,,,,,,,,,,,,,,,,327.4597184289996,None,327.4597184289996,None,,,,,,,,,sub-08,10/12/2002,2: Female,25/09/2023,002,1: right,2023_Sep_25_1823,[FINAL]_fmri_multiplication,2021.2.3,59.981449417183796
block5.xlsx,,,,,,,,,,,,,,0,0,0,0,,,,,16,0,16,0,,,,,,,,,,,,,,,,,,,,,,,,,,,,,,,,,,,,,,328.45996545900016,None,328.45996545900016,None,,,,,,,,,sub-08,10/12/2002,2: Female,25/09/2023,002,1: right,2023_Sep_25_1823,[FINAL]_fmri_multiplication,2021.2.3,59.981449417183796
block5.xlsx,,,,,,,,,,,,,,0,0,0,0,,,,,17,0,17,0,,,,,,,,,,,,,,,,,,,,,,,,,,,,,,,,,,,,,,329.46200236300047,None,329.46200236300047,None,,,,,,,,,sub-08,10/12/2002,2: Female,25/09/2023,002,1: right,2023_Sep_25_1823,[FINAL]_fmri_multiplication,2021.2.3,59.981449417183796
block5.xlsx,,,,,,,,,,,,,,0,0,0,0,,,,,18,0,18,0,,,,,,,,,,,,,,,,,,,,,,,,,,,,,,,,,,,,,,330.4603101749999,None,330.4603101749999,None,,,,,,,,,sub-08,10/12/2002,2: Female,25/09/2023,002,1: right,2023_Sep_25_1823,[FINAL]_fmri_multiplication,2021.2.3,59.981449417183796
block5.xlsx,,,,,,,,,,,,,,0,0,0,0,,,,,19,0,19,0,,,,,,,,,,,,,,,,,,,,,,,,,,,,,,,,,,,,,,331.46098437300043,None,331.46098437300043,None,,,,,,,,,sub-08,10/12/2002,2: Female,25/09/2023,002,1: right,2023_Sep_25_1823,[FINAL]_fmri_multiplication,2021.2.3,59.981449417183796
block5.xlsx,,,,,,,,,,,,,,0,0,0,0,,,,,20,0,20,0,,,,,,,,,,,,,,,,,,,,,,,,,,,,,,,,,,,,,,332.4621536479999,None,332.4621536479999,None,,,,,,,,,sub-08,10/12/2002,2: Female,25/09/2023,002,1: right,2023_Sep_25_1823,[FINAL]_fmri_multiplication,2021.2.3,59.981449417183796
block5.xlsx,,,,,,,,,,,,,,0,0,0,0,,,,,21,0,21,0,,,,,,,,,,,,,,,,,,,,,,,,,,,,,,,,,,,,,,333.4584946209998,None,333.4584946209998,None,,,,,,,,,sub-08,10/12/2002,2: Female,25/09/2023,002,1: right,2023_Sep_25_1823,[FINAL]_fmri_multiplication,2021.2.3,59.981449417183796
block5.xlsx,,,,,,,,,,,,,,0,0,0,0,,,,,22,0,22,0,,,,,,,,,,,,,,,,,,,,,,,,,,,,,,,,,,,,,,334.46039802500036,None,334.46039802500036,None,,,,,,,,,sub-08,10/12/2002,2: Female,25/09/2023,002,1: right,2023_Sep_25_1823,[FINAL]_fmri_multiplication,2021.2.3,59.981449417183796
block5.xlsx,,,,,,,,,,,,,,0,0,0,0,,,,,23,0,23,0,,,,,,,,,,,,,,,,,,,,,,,,,,,,,,,,,,,,,,335.45993841499967,None,335.45993841499967,None,,,,,,,,,sub-08,10/12/2002,2: Female,25/09/2023,002,1: right,2023_Sep_25_1823,[FINAL]_fmri_multiplication,2021.2.3,59.981449417183796
block5.xlsx,,,,,,,,,,,,,,0,0,0,0,,,,,24,0,24,0,,,,,,,,,,,,,,,,,,,,,,,,,,,,,,,,,,,,,,336.46011524799997,None,336.46011524799997,None,,,,,,,,,sub-08,10/12/2002,2: Female,25/09/2023,002,1: right,2023_Sep_25_1823,[FINAL]_fmri_multiplication,2021.2.3,59.981449417183796
block5.xlsx,,,,,,,,,,,,,,0,0,0,0,,,,,25,0,25,0,,,,,,,,,,,,,,,,,,,,,,,,,,,,,,,,,,,,,,337.4589150060001,None,337.4589150060001,None,,,,,,,,,sub-08,10/12/2002,2: Female,25/09/2023,002,1: right,2023_Sep_25_1823,[FINAL]_fmri_multiplication,2021.2.3,59.981449417183796
block5.xlsx,,,,,,,,,,,,,,0,0,0,0,,,,,26,0,26,0,,,,,,,,,,,,,,,,,,,,,,,,,,,,,,,,,,,,,,338.45914804899985,None,338.45914804899985,None,,,,,,,,,sub-08,10/12/2002,2: Female,25/09/2023,002,1: right,2023_Sep_25_1823,[FINAL]_fmri_multiplication,2021.2.3,59.981449417183796
block5.xlsx,,,,,,,,,,,,,,0,0,0,0,,,,,27,0,27,0,,,,,,,,,,,,,,,,,,,,,,,,,,,,,,,,,,,,,,339.4590120740004,None,339.4590120740004,None,,,,,,,,,sub-08,10/12/2002,2: Female,25/09/2023,002,1: right,2023_Sep_25_1823,[FINAL]_fmri_multiplication,2021.2.3,59.981449417183796
block5.xlsx,,,,,,,,,,,,,,0,0,0,0,,,,,28,0,28,0,,,,,,,,,,,,,,,,,,,,,,,,,,,,,,,,,,,,,,340.4594917679997,None,340.4594917679997,None,,,,,,,,,sub-08,10/12/2002,2: Female,25/09/2023,002,1: right,2023_Sep_25_1823,[FINAL]_fmri_multiplication,2021.2.3,59.981449417183796
block5.xlsx,,,,,,,,,,,,,,0,0,0,0,,,,,29,0,29,0,,,,,,,,,,,,,,,,,,,,,,,,,,,,,,,,,,,,,,341.4594579559998,None,341.4594579559998,None,,,,,,,,,sub-08,10/12/2002,2: Female,25/09/2023,002,1: right,2023_Sep_25_1823,[FINAL]_fmri_multiplication,2021.2.3,59.981449417183796
block5.xlsx,,,,,,,,,,,,,,0,0,0,0,,,,,,,,,,,,,,,,,,,,,,,,,,,,,,,,,,,,,,,,,,,,,,,,,,,,,,,,,,sub-08,10/12/2002,2: Female,25/09/2023,002,1: right,2023_Sep_25_1823,[FINAL]_fmri_multiplication,2021.2.3,59.981449417183796
block6.xlsx,10,7.5,4.1,6 x 5,36,14,5 x 6 = 36,large-sized_low-interference,large-sized,low-interference,6,IncorrectRESP,d,0,1,1,1,0,0,0,0,,,,,,,,,,,,,342.4592859260001,None,352.48258086700025,None,352.95929471900035,None,354.95946030600044,None,355.70949934800046,None,355.95974474800005,None,355.95974474800005,None,a,0,0.6101116949994321,355.95974474800005,None,356.5923765,None,356.5923765,None,d,0.16949334600030852,356.5923765,None,356.7923177780003,None,,,,,,,,,,,,,sub-08,10/12/2002,2: Female,25/09/2023,002,1: right,2023_Sep_25_1823,[FINAL]_fmri_multiplication,2021.2.3,59.981449417183796
block6.xlsx,21.6,7.5,7.2,2 x 6,10,6,6 x 2 = 10,small-sized_low-interference,small-sized,low-interference,3,IncorrectRESP,d,0,1,1,1,0,1,1,1,,,,,,,,,,,,,,,360.8924433259999,None,361.39266858999963,None,363.3930794219996,None,364.14328138200017,None,364.3937323480004,None,364.3937323480004,None,a,0,0.5281585599996106,364.3937323480004,None,364.9427196,None,364.9427196,None,d,0.14723011200021574,364.9427196,None,365.10961799800043,None,,,,,,,,,,,,,sub-08,10/12/2002,2: Female,25/09/2023,002,1: right,2023_Sep_25_1823,[FINAL]_fmri_multiplication,2021.2.3,59.981449417183796
block6.xlsx,36.3,7.5,13.8,6 x 7,42,23,7 x 6 = 42,large-sized_high-interference,large-sized,high-interference,22,CorrectRESP,a,0,1,1,1,0,2,2,2,,,,,,,,,,,,,,,372.3095919389998,None,372.80954390399984,None,374.8094802679998,None,375.55934677000005,None,375.80916666899975,None,375.80916666899975,None,d,0,0.40884307699980127,375.80916666899975,None,376.2425128,None,376.2425128,None,d,0.1834641900004499,376.2425128,None,376.44236340600037,None,,,,,,,,,,,,,sub-08,10/12/2002,2: Female,25/09/2023,002,1: right,2023_Sep_25_1823,[FINAL]_fmri_multiplication,2021.2.3,59.981449417183796
block6.xlsx,57.6,7.5,3.7,3 x 7,21,11,7 x 3 = 21,small-sized_high-interference,small-sized,high-interference,13,CorrectRESP,a,0,1,1,1,0,3,3,3,,,,,,,,,,,,,,,390.24223171500034,None,390.74278801499986,None,392.7423154830003,None,393.4927563,None,393.7429699940003,None,393.7429699940003,None,d,0,0.411009289,393.7429699940003,None,394.1742801829996,None,394.1742801829996,None,d,0.20357129300009547,394.1742801829996,None,394.4089888489998,None,,,,,,,,,,,,,sub-08,10/12/2002,2: Female,25/09/2023,002,1: right,2023_Sep_25_1823,[FINAL]_fmri_multiplication,2021.2.3,59.981449417183796
block6.xlsx,68.8,7.5,7.8,2 x 7,12,1,7 x 2 = 12,small-sized_low-interference,small-sized,low-interference,4,IncorrectRESP,d,0,1,1,1,0,4,4,4,,,,,,,,,,,,,,,398.1093745190001,None,398.6101914560004,None,400.60982989399963,None,401.36001560600016,None,401.60933114900035,None,401.60933114900035,None,a,0,0.5126608800001122,401.60933114900035,None,402.14270440899963,None,402.14270440899963,None,d,0.1552476899996691,402.14270440899963,None,402.3266189920005,None,,,,,,,,,,,,,sub-08,10/12/2002,2: Female,25/09/2023,002,1: right,2023_Sep_25_1823,[FINAL]_fmri_multiplication,2021.2.3,59.981449417183796
block6.xlsx,84.1,7.5,8.6,3 x 9,24,19,9 x 3 = 24,large-sized_high-interference,large-sized,high-interference,9,IncorrectRESP,d,0,1,1,1,0,5,5,5,,,,,,,,,,,,,,,410.12595673299984,None,410.62578820900035,None,412.6262069,None,413.3761134380002,None,413.62597445699976,None,413.62597445699976,None,a,0,0.4879889419999017,413.62597445699976,None,414.1422087110004,None,414.1422087110004,None,d,0.1397364889999153,414.1422087110004,None,414.3095402549998,None,,,,,,,,,,,,,sub-08,10/12/2002,2: Female,25/09/2023,002,1: right,2023_Sep_25_1823,[FINAL]_fmri_multiplication,2021.2.3,59.981449417183796
block6.xlsx,100.2,7.5,3.3,4 x 6,24,10,6 x 4 = 24,small-sized_high-interference,small-sized,high-interference,12,CorrectRESP,a,0,1,1,1,0,6,6,6,,,,,,,,,,,,,,,422.90893734400015,None,423.40964921700015,None,425.4094171659999,None,426.1584009620001,None,426.4096673439999,None,426.4096673439999,None,d,0,0.4802442809996137,426.4096673439999,None,426.90878075399996,None,426.90878075399996,None,d,0.1971732410002005,426.90878075399996,None,427.1256161520005,None,,,,,,,,,,,,,sub-08,10/12/2002,2: Female,25/09/2023,002,1: right,2023_Sep_25_1823,[FINAL]_fmri_multiplication,2021.2.3,59.981449417183796
block6.xlsx,111,7.5,6.3,9 x 2,16,2,2 x 9 = 16,small-sized_low-interference,small-sized,low-interference,7,IncorrectRESP,d,0,1,1,1,0,7,7,7,,,,,,,,,,,,,,,430.4261659,None,430.9263539530002,None,432.92644233600004,None,433.6761778580003,None,433.9237548049996,None,433.9237548049996,None,a,0,0.6301391619999777,433.9237548049996,None,434.5734061559997,None,434.5734061559997,None,d,0.11650559000008798,434.5734061559997,None,434.7064026600001,None,,,,,,,,,,,,,sub-08,10/12/2002,2: Female,25/09/2023,002,1: right,2023_Sep_25_1823,[FINAL]_fmri_multiplication,2021.2.3,59.981449417183796
block6.xlsx,124.8,7.5,3.1,6 x 6,30,13,6 x 6 = 30,large-sized_low-interference,large-sized,low-interference,4,IncorrectRESP,d,0,1,1,1,0,8,8,8,,,,,,,,,,,,,,,441.0097438929997,None,441.5090984799999,None,443.5096223549999,None,444.2595582900003,None,444.5092123149998,None,444.5092123149998,None,a,0,0.6047392310001669,444.5092123149998,None,445.14292865100015,None,445.14292865100015,None,d,0.099053772,445.14292865100015,None,445.2588619320004,None,,,,,,,,,,,,,sub-08,10/12/2002,2: Female,25/09/2023,002,1: right,2023_Sep_25_1823,[FINAL]_fmri_multiplication,2021.2.3,59.981449417183796
block6.xlsx,135.4,7.5,2.7,5 x 4,16,8,4 x 5 = 16,small-sized_high-interference,small-sized,high-interference,8,IncorrectRESP,d,0,1,1,1,0,9,9,9,,,,,,,,,,,,,,,448.3735596759998,None,448.87874238600034,None,450.8761774900004,None,451.62605315200017,None,451.8759255539999,None,451.8759255539999,None,a,0,0.4699412059999304,451.8759255539999,None,452.3760832170001,None,452.3760832170001,None,d,0.11386271700030193,452.3760832170001,None,452.5088950769996,None,,,,,,,,,,,,,sub-08,10/12/2002,2: Female,25/09/2023,002,1: right,2023_Sep_25_1823,[FINAL]_fmri_multiplication,2021.2.3,59.981449417183796
block6.xlsx,145.6,7.5,5.1,5 x 5,25,3,5 x 5 = 25,small-sized_low-interference,small-sized,low-interference,3,CorrectRESP,a,0,1,1,1,0,10,10,10,,,,,,,,,,,,,,,455.2094969910004,None,455.70917296900006,None,457.7094755520002,None,458.4594337890003,None,458.7078151699998,None,458.7078151699998,None,d,0,0.4459945129992775,458.7078151699998,None,459.1754617630004,None,459.1754617630004,None,d,0.17847458600044774,459.1754617630004,None,459.37561915100014,None,,,,,,,,,,,,,sub-08,10/12/2002,2: Female,25/09/2023,002,1: right,2023_Sep_25_1823,[FINAL]_fmri_multiplication,2021.2.3,59.981449417183796
block6.xlsx,158.2,7.5,2.9,7 x 7,56,18,7 x 7 = 56,large-sized_low-interference,large-sized,low-interference,7,IncorrectRESP,d,0,1,1,1,0,11,11,11,,,,,,,,,,,,,,,464.4754514670003,None,464.9760613130002,None,466.97613105799974,None,467.72642041200015,None,467.97792005799965,None,467.97792005799965,None,a,0,0.5520520840000245,467.97792005799965,None,468.5594456299996,None,468.5594456299996,None,d,0.13056175300062023,468.5594456299996,None,468.7093910419999,None,,,,,,,,,,,,,sub-08,10/12/2002,2: Female,25/09/2023,002,1: right,2023_Sep_25_1823,[FINAL]_fmri_multiplication,2021.2.3,59.981449417183796
block6.xlsx,168.6,7.5,5.7,3 x 6,15,7,6 x 3 = 15,small-sized_high-interference,small-sized,high-interference,8,IncorrectRESP,d,0,1,1,1,0,12,12,12,,,,,,,,,,,,,,,471.61009385800025,None,472.1095968689997,None,474.10989872499977,None,474.8599295949998,None,475.1095036349998,None,475.1095036349998,None,a,0,0.5324826599999142,475.1095036349998,None,475.65959029700025,None,475.65959029700025,None,d,0.14240509000046586,475.65959029700025,None,475.8260965119998,None,,,,,,,,,,,,,sub-08,10/12/2002,2: Female,25/09/2023,002,1: right,2023_Sep_25_1823,[FINAL]_fmri_multiplication,2021.2.3,59.981449417183796
block6.xlsx,181.8,7.5,3,2 x 8,16,5,8 x 2 = 16,small-sized_low-interference,small-sized,low-interference,7,CorrectRESP,a,0,1,1,1,0,13,13,13,,,,,,,,,,,,,,,481.5258566419998,None,482.0294169990002,None,484.0430350939996,None,484.7928607260001,None,485.04258273400046,None,485.04258273400046,None,d,0,0.3833568199997899,485.04258273400046,None,485.4431375439999,None,485.4431375439999,None,d,0.17471555800057104,485.4431375439999,None,485.6419905450002,None,,,,,,,,,,,,,sub-08,10/12/2002,2: Female,25/09/2023,002,1: right,2023_Sep_25_1823,[FINAL]_fmri_multiplication,2021.2.3,59.981449417183796
block6.xlsx,192.3,7.5,5.9,5 x 9,45,15,9 x 5 = 45,large-sized_low-interference,large-sized,low-interference,6,CorrectRESP,a,0,1,1,1,0,14,14,14,,,,,,,,,,,,,,,488.6427680939996,None,489.1428627360001,None,491.14228216799984,None,491.8926768299998,None,492.14205986399975,None,492.14205986399975,None,d,0,0.4118514360006884,492.14205986399975,None,492.5755049,None,492.5755049,None,d,0.1784168319991295,492.5755049,None,492.7756709180003,None,,,,,,,,,,,,,sub-08,10/12/2002,2: Female,25/09/2023,002,1: right,2023_Sep_25_1823,[FINAL]_fmri_multiplication,2021.2.3,59.981449417183796
block6.xlsx,205.7,7.5,2.1,4 x 3,12,9,3 x 4 = 12,small-sized_high-interference,small-sized,high-interference,10,CorrectRESP,a,0,1,1,1,0,15,15,15,,,,,,,,,,,,,,,498.67602625699965,None,499.1744597500001,None,501.17626590500004,None,501.92577156900006,None,502.17662530300004,None,502.17662530300004,None,d,0,0.4252647439998327,502.17662530300004,None,502.62582420299987,None,502.62582420299987,None,d,0.16006203400047525,502.62582420299987,None,502.80934445300045,None,,,,,,,,,,,,,sub-08,10/12/2002,2: Female,25/09/2023,002,1: right,2023_Sep_25_1823,[FINAL]_fmri_multiplication,2021.2.3,59.981449417183796
block6.xlsx,215.3,7.5,9.9,7 x 8,56,22,8 x 7 = 56,large-sized_high-interference,large-sized,high-interference,9,CorrectRESP,a,0,1,1,1,0,16,16,16,,,,,,,,,,,,,,,504.9098656790002,None,505.4097727039998,None,507.4094109609996,None,508.1598531359996,None,508.41008763599984,None,508.41008763599984,None,d,0,0.45583971300038684,508.41008763599984,None,508.8956178159997,None,508.8956178159997,None,d,0.146367873,508.8956178159997,None,509.0594297130001,None,,,,,,,,,,,,,sub-08,10/12/2002,2: Female,25/09/2023,002,1: right,2023_Sep_25_1823,[FINAL]_fmri_multiplication,2021.2.3,59.981449417183796
block6.xlsx,232.7,7.5,2.2,8 x 3,21,12,3 x 8 = 21,small-sized_high-interference,small-sized,high-interference,13,IncorrectRESP,d,0,1,1,1,0,17,17,17,,,,,,,,,,,,,,,518.9594329049996,None,519.4589448719998,None,521.4592625169998,None,522.209521,None,522.4596569639998,None,522.4596569639998,None,a,0,0.5262389780000376,522.4596569639998,None,523.0089089209996,None,523.0089089209996,None,d,0.1529585100006443,523.0089089209996,None,523.19228,None,,,,,,,,,,,,,sub-08,10/12/2002,2: Female,25/09/2023,002,1: right,2023_Sep_25_1823,[FINAL]_fmri_multiplication,2021.2.3,59.981449417183796
block6.xlsx,242.4,7.5,7.9,9 x 9,81,16,9 x 9 = 81,large-sized_low-interference,large-sized,low-interference,6,CorrectRESP,a,0,1,1,1,0,18,18,18,,,,,,,,,,,,,,,525.3926817829997,None,525.8924805570005,None,527.8927117069998,None,528.6422065,None,528.8924674919999,None,528.8924674919999,None,d,0,0.3255150639997737,528.8924674919999,None,529.2421861100001,None,529.2421861100001,None,d,0.15969646200028365,529.2421861100001,None,529.4255336619999,None,,,,,,,,,,,,,sub-08,10/12/2002,2: Female,25/09/2023,002,1: right,2023_Sep_25_1823,[FINAL]_fmri_multiplication,2021.2.3,59.981449417183796
block6.xlsx,257.8,7.5,8.3,9 x 4,32,20,4 x 9 = 32,large-sized_high-interference,large-sized,high-interference,9,IncorrectRESP,d,0,1,1,1,0,19,19,19,,,,,,,,,,,,,,,537.3258637219997,None,537.8275933,None,539.8254726080004,None,540.5766861559996,None,540.8268462810001,None,540.8268462810001,None,a,0,0.45514533299956383,540.8268462810001,None,541.3096776889997,None,541.3096776889997,None,d,0.10834034300023632,541.3096776889997,None,541.4425915,None,,,,,,,,,,,,,sub-08,10/12/2002,2: Female,25/09/2023,002,1: right,2023_Sep_25_1823,[FINAL]_fmri_multiplication,2021.2.3,59.981449417183796
block6.xlsx,273.6,7.5,12.1,5 x 7,35,17,7 x 5 = 35,large-sized_low-interference,large-sized,low-interference,7,CorrectRESP,a,0,1,1,1,0,20,20,20,,,,,,,,,,,,,,,549.7424570000003,None,550.2426583639999,None,552.2427448130002,None,552.9928753,None,553.2422987130003,None,553.2422987130003,None,d,0,0.3840229960005672,553.2422987130003,None,553.6441970380001,None,553.6441970380001,None,d,0.17381194900008268,553.6441970380001,None,553.8427516250003,None,,,,,,,,,,,,,sub-08,10/12/2002,2: Female,25/09/2023,002,1: right,2023_Sep_25_1823,[FINAL]_fmri_multiplication,2021.2.3,59.981449417183796
block6.xlsx,293.2,7.5,4.1,4 x 8,28,24,8 x 4 = 28,large-sized_high-interference,large-sized,high-interference,25,IncorrectRESP,d,0,1,1,1,0,21,21,21,,,,,,,,,,,,,,,565.9422423269998,None,566.4427958670003,None,568.4423380529997,None,569.1927462659996,None,569.4416087099999,None,569.4416087099999,None,a,0,0.5203047099994365,569.4416087099999,None,569.9915415599999,None,569.9915415599999,None,d,0.17036662400005298,569.9915415599999,None,570.1927869110004,None,,,,,,,,,,,,,sub-08,10/12/2002,2: Female,25/09/2023,002,1: right,2023_Sep_25_1823,[FINAL]_fmri_multiplication,2021.2.3,59.981449417183796
block6.xlsx,304.8,7.5,6.7,4 x 4,16,4,4 x 4 = 16,small-sized_low-interference,small-sized,low-interference,5,CorrectRESP,a,0,1,1,1,0,22,22,22,,,,,,,,,,,,,,,574.2928362880002,None,574.7929553760005,None,576.7932902299999,None,577.5433190659996,None,577.7932768199998,None,577.7932768199998,None,d,0,0.43278804199962906,577.7932768199998,None,578.2439608100003,None,578.2439608100003,None,d,0.158010774,578.2439608100003,None,578.4266407779996,None,,,,,,,,,,,,,sub-08,10/12/2002,2: Female,25/09/2023,002,1: right,2023_Sep_25_1823,[FINAL]_fmri_multiplication,2021.2.3,59.981449417183796
block6.xlsx,319,7.5,8.5,8 x 5,40,21,5 x 8 = 40,large-sized_high-interference,large-sized,high-interference,9,CorrectRESP,a,0,1,1,1,0,23,23,23,,,,,,,,,,,,,,,585.1263100030001,None,585.6257934679998,None,587.6261657940004,None,588.3762737019997,None,588.6258732710003,None,588.6258732710003,None,d,0,0.3359743119999621,588.6258732710003,None,588.9923314770003,None,588.9923314770003,None,d,0.14550879300077213,588.9923314770003,None,589.1590440010004,None,,,,,,,,,,,,,sub-08,10/12/2002,2: Female,25/09/2023,002,1: right,2023_Sep_25_1823,[FINAL]_fmri_multiplication,2021.2.3,59.981449417183796
block6.xlsx,,,,,,,,,,,,,,0,1,1,1,,,,,0,0,0,0,,,,,,,,,,,,,,,,,,,,,,,,,,,,,,,,,,,,,,597.6619581,None,597.6619581,None,,,,,,,,,sub-08,10/12/2002,2: Female,25/09/2023,002,1: right,2023_Sep_25_1823,[FINAL]_fmri_multiplication,2021.2.3,59.981449417183796
block6.xlsx,,,,,,,,,,,,,,0,1,1,1,,,,,1,0,1,0,,,,,,,,,,,,,,,,,,,,,,,,,,,,,,,,,,,,,,598.6763684,None,598.6763684,None,,,,,,,,,sub-08,10/12/2002,2: Female,25/09/2023,002,1: right,2023_Sep_25_1823,[FINAL]_fmri_multiplication,2021.2.3,59.981449417183796
block6.xlsx,,,,,,,,,,,,,,0,1,1,1,,,,,2,0,2,0,,,,,,,,,,,,,,,,,,,,,,,,,,,,,,,,,,,,,,599.6763145639998,None,599.6763145639998,None,,,,,,,,,sub-08,10/12/2002,2: Female,25/09/2023,002,1: right,2023_Sep_25_1823,[FINAL]_fmri_multiplication,2021.2.3,59.981449417183796
block6.xlsx,,,,,,,,,,,,,,0,1,1,1,,,,,3,0,3,0,,,,,,,,,,,,,,,,,,,,,,,,,,,,,,,,,,,,,,600.6761254889998,None,600.6761254889998,None,,,,,,,,,sub-08,10/12/2002,2: Female,25/09/2023,002,1: right,2023_Sep_25_1823,[FINAL]_fmri_multiplication,2021.2.3,59.981449417183796
block6.xlsx,,,,,,,,,,,,,,0,1,1,1,,,,,4,0,4,0,,,,,,,,,,,,,,,,,,,,,,,,,,,,,,,,,,,,,,601.6761409480005,None,601.6761409480005,None,,,,,,,,,sub-08,10/12/2002,2: Female,25/09/2023,002,1: right,2023_Sep_25_1823,[FINAL]_fmri_multiplication,2021.2.3,59.981449417183796
block6.xlsx,,,,,,,,,,,,,,0,1,1,1,,,,,5,0,5,0,,,,,,,,,,,,,,,,,,,,,,,,,,,,,,,,,,,,,,602.6768458099996,None,602.6768458099996,None,,,,,,,,,sub-08,10/12/2002,2: Female,25/09/2023,002,1: right,2023_Sep_25_1823,[FINAL]_fmri_multiplication,2021.2.3,59.981449417183796
block6.xlsx,,,,,,,,,,,,,,0,1,1,1,,,,,6,0,6,0,,,,,,,,,,,,,,,,,,,,,,,,,,,,,,,,,,,,,,603.6767528330001,None,603.6767528330001,None,,,,,,,,,sub-08,10/12/2002,2: Female,25/09/2023,002,1: right,2023_Sep_25_1823,[FINAL]_fmri_multiplication,2021.2.3,59.981449417183796
block6.xlsx,,,,,,,,,,,,,,0,1,1,1,,,,,7,0,7,0,,,,,,,,,,,,,,,,,,,,,,,,,,,,,,,,,,,,,,604.6760995,None,604.6760995,None,,,,,,,,,sub-08,10/12/2002,2: Female,25/09/2023,002,1: right,2023_Sep_25_1823,[FINAL]_fmri_multiplication,2021.2.3,59.981449417183796
block6.xlsx,,,,,,,,,,,,,,0,1,1,1,,,,,8,0,8,0,,,,,,,,,,,,,,,,,,,,,,,,,,,,,,,,,,,,,,605.6771586300001,None,605.6771586300001,None,,,,,,,,,sub-08,10/12/2002,2: Female,25/09/2023,002,1: right,2023_Sep_25_1823,[FINAL]_fmri_multiplication,2021.2.3,59.981449417183796
block6.xlsx,,,,,,,,,,,,,,0,1,1,1,,,,,9,0,9,0,,,,,,,,,,,,,,,,,,,,,,,,,,,,,,,,,,,,,,606.6762697980002,None,606.6762697980002,None,,,,,,,,,sub-08,10/12/2002,2: Female,25/09/2023,002,1: right,2023_Sep_25_1823,[FINAL]_fmri_multiplication,2021.2.3,59.981449417183796
block6.xlsx,,,,,,,,,,,,,,0,1,1,1,,,,,10,0,10,0,,,,,,,,,,,,,,,,,,,,,,,,,,,,,,,,,,,,,,607.6764754790001,None,607.6764754790001,None,,,,,,,,,sub-08,10/12/2002,2: Female,25/09/2023,002,1: right,2023_Sep_25_1823,[FINAL]_fmri_multiplication,2021.2.3,59.981449417183796
block6.xlsx,,,,,,,,,,,,,,0,1,1,1,,,,,11,0,11,0,,,,,,,,,,,,,,,,,,,,,,,,,,,,,,,,,,,,,,608.6755498590001,None,608.6755498590001,None,,,,,,,,,sub-08,10/12/2002,2: Female,25/09/2023,002,1: right,2023_Sep_25_1823,[FINAL]_fmri_multiplication,2021.2.3,59.981449417183796
block6.xlsx,,,,,,,,,,,,,,0,1,1,1,,,,,12,0,12,0,,,,,,,,,,,,,,,,,,,,,,,,,,,,,,,,,,,,,,609.6786857,None,609.6786857,None,,,,,,,,,sub-08,10/12/2002,2: Female,25/09/2023,002,1: right,2023_Sep_25_1823,[FINAL]_fmri_multiplication,2021.2.3,59.981449417183796
block6.xlsx,,,,,,,,,,,,,,0,1,1,1,,,,,13,0,13,0,,,,,,,,,,,,,,,,,,,,,,,,,,,,,,,,,,,,,,610.6651571049997,None,610.6651571049997,None,,,,,,,,,sub-08,10/12/2002,2: Female,25/09/2023,002,1: right,2023_Sep_25_1823,[FINAL]_fmri_multiplication,2021.2.3,59.981449417183796
block6.xlsx,,,,,,,,,,,,,,0,1,1,1,,,,,14,0,14,0,,,,,,,,,,,,,,,,,,,,,,,,,,,,,,,,,,,,,,611.6774258,None,611.6774258,None,,,,,,,,,sub-08,10/12/2002,2: Female,25/09/2023,002,1: right,2023_Sep_25_1823,[FINAL]_fmri_multiplication,2021.2.3,59.981449417183796
block6.xlsx,,,,,,,,,,,,,,0,1,1,1,,,,,15,0,15,0,,,,,,,,,,,,,,,,,,,,,,,,,,,,,,,,,,,,,,612.6763187220004,None,612.6763187220004,None,,,,,,,,,sub-08,10/12/2002,2: Female,25/09/2023,002,1: right,2023_Sep_25_1823,[FINAL]_fmri_multiplication,2021.2.3,59.981449417183796
block6.xlsx,,,,,,,,,,,,,,0,1,1,1,,,,,16,0,16,0,,,,,,,,,,,,,,,,,,,,,,,,,,,,,,,,,,,,,,613.6773901420001,None,613.6773901420001,None,,,,,,,,,sub-08,10/12/2002,2: Female,25/09/2023,002,1: right,2023_Sep_25_1823,[FINAL]_fmri_multiplication,2021.2.3,59.981449417183796
block6.xlsx,,,,,,,,,,,,,,0,1,1,1,,,,,17,0,17,0,,,,,,,,,,,,,,,,,,,,,,,,,,,,,,,,,,,,,,614.6777083019997,None,614.6777083019997,None,,,,,,,,,sub-08,10/12/2002,2: Female,25/09/2023,002,1: right,2023_Sep_25_1823,[FINAL]_fmri_multiplication,2021.2.3,59.981449417183796
block6.xlsx,,,,,,,,,,,,,,0,1,1,1,,,,,18,0,18,0,,,,,,,,,,,,,,,,,,,,,,,,,,,,,,,,,,,,,,615.6785828740003,None,615.6785828740003,None,,,,,,,,,sub-08,10/12/2002,2: Female,25/09/2023,002,1: right,2023_Sep_25_1823,[FINAL]_fmri_multiplication,2021.2.3,59.981449417183796
block6.xlsx,,,,,,,,,,,,,,0,1,1,1,,,,,19,0,19,0,,,,,,,,,,,,,,,,,,,,,,,,,,,,,,,,,,,,,,616.6767294889996,None,616.6767294889996,None,,,,,,,,,sub-08,10/12/2002,2: Female,25/09/2023,002,1: right,2023_Sep_25_1823,[FINAL]_fmri_multiplication,2021.2.3,59.981449417183796
block6.xlsx,,,,,,,,,,,,,,0,1,1,1,,,,,20,0,20,0,,,,,,,,,,,,,,,,,,,,,,,,,,,,,,,,,,,,,,617.6764651659996,None,617.6764651659996,None,,,,,,,,,sub-08,10/12/2002,2: Female,25/09/2023,002,1: right,2023_Sep_25_1823,[FINAL]_fmri_multiplication,2021.2.3,59.981449417183796
block6.xlsx,,,,,,,,,,,,,,0,1,1,1,,,,,21,0,21,0,,,,,,,,,,,,,,,,,,,,,,,,,,,,,,,,,,,,,,618.6760910940002,None,618.6760910940002,None,,,,,,,,,sub-08,10/12/2002,2: Female,25/09/2023,002,1: right,2023_Sep_25_1823,[FINAL]_fmri_multiplication,2021.2.3,59.981449417183796
block6.xlsx,,,,,,,,,,,,,,0,1,1,1,,,,,22,0,22,0,,,,,,,,,,,,,,,,,,,,,,,,,,,,,,,,,,,,,,619.6759459309997,None,619.6759459309997,None,,,,,,,,,sub-08,10/12/2002,2: Female,25/09/2023,002,1: right,2023_Sep_25_1823,[FINAL]_fmri_multiplication,2021.2.3,59.981449417183796
block6.xlsx,,,,,,,,,,,,,,0,1,1,1,,,,,23,0,23,0,,,,,,,,,,,,,,,,,,,,,,,,,,,,,,,,,,,,,,620.6758048239999,None,620.6758048239999,None,,,,,,,,,sub-08,10/12/2002,2: Female,25/09/2023,002,1: right,2023_Sep_25_1823,[FINAL]_fmri_multiplication,2021.2.3,59.981449417183796
block6.xlsx,,,,,,,,,,,,,,0,1,1,1,,,,,24,0,24,0,,,,,,,,,,,,,,,,,,,,,,,,,,,,,,,,,,,,,,621.6760577490004,None,621.6760577490004,None,,,,,,,,,sub-08,10/12/2002,2: Female,25/09/2023,002,1: right,2023_Sep_25_1823,[FINAL]_fmri_multiplication,2021.2.3,59.981449417183796
block6.xlsx,,,,,,,,,,,,,,0,1,1,1,,,,,25,0,25,0,,,,,,,,,,,,,,,,,,,,,,,,,,,,,,,,,,,,,,622.6761328599996,None,622.6761328599996,None,,,,,,,,,sub-08,10/12/2002,2: Female,25/09/2023,002,1: right,2023_Sep_25_1823,[FINAL]_fmri_multiplication,2021.2.3,59.981449417183796
block6.xlsx,,,,,,,,,,,,,,0,1,1,1,,,,,26,0,26,0,,,,,,,,,,,,,,,,,,,,,,,,,,,,,,,,,,,,,,623.6760889360003,None,623.6760889360003,None,,,,,,,,,sub-08,10/12/2002,2: Female,25/09/2023,002,1: right,2023_Sep_25_1823,[FINAL]_fmri_multiplication,2021.2.3,59.981449417183796
block6.xlsx,,,,,,,,,,,,,,0,1,1,1,,,,,27,0,27,0,,,,,,,,,,,,,,,,,,,,,,,,,,,,,,,,,,,,,,624.6761864959999,None,624.6761864959999,None,,,,,,,,,sub-08,10/12/2002,2: Female,25/09/2023,002,1: right,2023_Sep_25_1823,[FINAL]_fmri_multiplication,2021.2.3,59.981449417183796
block6.xlsx,,,,,,,,,,,,,,0,1,1,1,,,,,28,0,28,0,,,,,,,,,,,,,,,,,,,,,,,,,,,,,,,,,,,,,,625.6761690760004,None,625.6761690760004,None,,,,,,,,,sub-08,10/12/2002,2: Female,25/09/2023,002,1: right,2023_Sep_25_1823,[FINAL]_fmri_multiplication,2021.2.3,59.981449417183796
block6.xlsx,,,,,,,,,,,,,,0,1,1,1,,,,,29,0,29,0,,,,,,,,,,,,,,,,,,,,,,,,,,,,,,,,,,,,,,626.6758392880001,None,626.6758392880001,None,,,,,,,,,sub-08,10/12/2002,2: Female,25/09/2023,002,1: right,2023_Sep_25_1823,[FINAL]_fmri_multiplication,2021.2.3,59.981449417183796
block6.xlsx,,,,,,,,,,,,,,0,1,1,1,,,,,,,,,,,,,,,,,,,,,,,,,,,,,,,,,,,,,,,,,,,,,,,,,,,,,,,,,,sub-08,10/12/2002,2: Female,25/09/2023,002,1: right,2023_Sep_25_1823,[FINAL]_fmri_multiplication,2021.2.3,59.981449417183796
block7.xlsx,10,7.5,4,2 x 7,14,1,7 x 2 = 14,small-sized_low-interference,small-sized,low-interference,4,CorrectRESP,a,0,2,2,2,0,0,0,0,,,,,,,,,,,,,627.6777429450003,None,637.7003313,None,638.1762885500002,None,640.1762283959997,None,640.9257630239999,None,641.1757913640004,None,641.1757913640004,None,d,0,0.36208181900019554,641.1757913640004,None,641.5578022460004,None,641.5578022460004,None,d,0.14804826699946716,641.5578022460004,None,641.7257386,None,,,,,,,,,,,,,sub-08,10/12/2002,2: Female,25/09/2023,002,1: right,2023_Sep_25_1823,[FINAL]_fmri_multiplication,2021.2.3,59.981449417183796
block7.xlsx,21.5,7.5,14.2,3 x 6,15,7,6 x 3 = 15,small-sized_high-interference,small-sized,high-interference,8,IncorrectRESP,d,0,2,2,2,0,1,1,1,,,,,,,,,,,,,,,645.7267240239999,None,646.2264336790004,None,648.2268217789997,None,648.9764394009999,None,649.2267226490003,None,649.2267226490003,None,a,0,0.4792763340001329,649.2267226490003,None,649.7260589329999,None,649.7260589329999,None,d,0.17994727099994634,649.7260589329999,None,649.9261014630001,None,,,,,,,,,,,,,sub-08,10/12/2002,2: Female,25/09/2023,002,1: right,2023_Sep_25_1823,[FINAL]_fmri_multiplication,2021.2.3,59.981449417183796
block7.xlsx,43.2,7.5,5.1,2 x 7,12,1,7 x 2 = 12,small-sized_low-interference,small-sized,low-interference,4,IncorrectRESP,d,0,2,2,2,0,2,2,2,,,,,,,,,,,,,,,664.1260463019998,None,664.6259287940002,None,666.6260150389999,None,667.3751839590004,None,667.6260431970004,None,667.6260431970004,None,a,0,0.5278888049997477,667.6260431970004,None,668.1754953970003,None,668.1754953970003,None,d,0.1225194280004871,668.1754953970003,None,668.3242237470004,None,,,,,,,,,,,,,sub-08,10/12/2002,2: Female,25/09/2023,002,1: right,2023_Sep_25_1823,[FINAL]_fmri_multiplication,2021.2.3,59.981449417183796
block7.xlsx,55.8,7.5,3.4,5 x 9,40,15,9 x 5 = 40,large-sized_low-interference,large-sized,low-interference,6,IncorrectRESP,d,0,2,2,2,0,3,3,3,,,,,,,,,,,,,,,673.4260258630002,None,673.9268668770001,None,675.926121,None,676.6762157860003,None,676.9258202410001,None,676.9258202410001,None,a,0,0.4921042209998632,676.9258202410001,None,677.4424506160003,None,677.4424506160003,None,d,0.095434855,677.4424506160003,None,677.5582849439998,None,,,,,,,,,,,,,sub-08,10/12/2002,2: Female,25/09/2023,002,1: right,2023_Sep_25_1823,[FINAL]_fmri_multiplication,2021.2.3,59.981449417183796
block7.xlsx,66.7,7.5,2.9,5 x 5,30,3,5 x 5 = 30,small-sized_low-interference,small-sized,low-interference,3,IncorrectRESP,d,0,2,2,2,0,4,4,4,,,,,,,,,,,,,,,680.9597978580005,None,681.4597965960002,None,683.4598507800001,None,684.2099554480001,None,684.4757212189998,None,684.4757212189998,None,a,0,0.4621994970002561,684.4757212189998,None,684.9593363479999,None,684.9593363479999,None,d,0.12259230099971319,684.9593363479999,None,685.1098782520003,None,,,,,,,,,,,,,sub-08,10/12/2002,2: Female,25/09/2023,002,1: right,2023_Sep_25_1823,[FINAL]_fmri_multiplication,2021.2.3,59.981449417183796
block7.xlsx,77.1,7.5,13.9,5 x 7,40,17,7 x 5 = 40,large-sized_low-interference,large-sized,low-interference,7,IncorrectRESP,d,0,2,2,2,0,5,5,5,,,,,,,,,,,,,,,688.0097237370001,None,688.5098654140002,None,690.5088650170001,None,691.2599663219999,None,691.5084391299997,None,691.5084391299997,None,a,0,0.5254884309997578,691.5084391299997,None,692.0590502320001,None,692.0590502320001,None,d,0.13481934700030251,692.0590502320001,None,692.2260446669998,None,,,,,,,,,,,,,sub-08,10/12/2002,2: Female,25/09/2023,002,1: right,2023_Sep_25_1823,[FINAL]_fmri_multiplication,2021.2.3,59.981449417183796
block7.xlsx,98.5,7.5,2.6,2 x 8,16,5,8 x 2 = 16,small-sized_low-interference,small-sized,low-interference,7,CorrectRESP,a,0,2,2,2,0,6,6,6,,,,,,,,,,,,,,,706.1256056700004,None,706.6266452660002,None,708.6426200340002,None,709.3918367140004,None,709.6410115,None,709.6410115,None,d,0,0.4169184559996211,709.6410115,None,710.0742971359996,None,710.0742971359996,None,d,0.15958032399976219,710.0742971359996,None,710.2587628430001,None,,,,,,,,,,,,,sub-08,10/12/2002,2: Female,25/09/2023,002,1: right,2023_Sep_25_1823,[FINAL]_fmri_multiplication,2021.2.3,59.981449417183796
block7.xlsx,108.6,7.5,11.6,3 x 6,18,7,6 x 3 = 18,small-sized_high-interference,small-sized,high-interference,8,CorrectRESP,a,0,2,2,2,0,7,7,7,,,,,,,,,,,,,,,712.859426,None,713.3592387199997,None,715.3596385,None,716.1095475170005,None,716.3599738470002,None,716.3599738470002,None,d,0,0.39408032200026355,716.3599738470002,None,716.7760479150002,None,716.7760479150002,None,d,0.1538302470007693,716.7760479150002,None,716.9599694070002,None,,,,,,,,,,,,,sub-08,10/12/2002,2: Female,25/09/2023,002,1: right,2023_Sep_25_1823,[FINAL]_fmri_multiplication,2021.2.3,59.981449417183796
block7.xlsx,127.7,7.5,5,5 x 5,25,3,5 x 5 = 25,small-sized_low-interference,small-sized,low-interference,3,CorrectRESP,a,0,2,2,2,0,8,8,8,,,,,,,,,,,,,,,728.5594926,None,729.0593416210004,None,731.0591424220001,None,731.8094137910002,None,732.0592190469997,None,732.0592190469997,None,d,0,0.4147763840001062,732.0592190469997,None,732.4924992830001,None,732.4924992830001,None,d,0.1574155399994197,732.4924992830001,None,732.6758765000004,None,,,,,,,,,,,,,sub-08,10/12/2002,2: Female,25/09/2023,002,1: right,2023_Sep_25_1823,[FINAL]_fmri_multiplication,2021.2.3,59.981449417183796
block7.xlsx,140.2,7.5,2.8,6 x 6,36,13,6 x 6 = 36,large-sized_low-interference,large-sized,low-interference,4,CorrectRESP,a,0,2,2,2,0,9,9,9,,,,,,,,,,,,,,,737.6757492850002,None,738.1758765309996,None,740.1759695970004,None,740.9260934,None,741.1761990069999,None,741.1761990069999,None,d,0,0.3856726060002984,741.1761990069999,None,741.5929157150003,None,741.5929157150003,None,d,0.5210659919994214,741.5929157150003,None,742.1422784770002,None,,,,,,,,,,,,,sub-08,10/12/2002,2: Female,25/09/2023,002,1: right,2023_Sep_25_1823,[FINAL]_fmri_multiplication,2021.2.3,59.981449417183796
block7.xlsx,150.5,7.5,2,3 x 7,21,11,7 x 3 = 21,small-sized_high-interference,small-sized,high-interference,13,CorrectRESP,a,0,2,2,2,0,10,10,10,,,,,,,,,,,,,,,744.9426956200004,None,745.4425004,None,747.4429194820004,None,748.1929104139999,None,748.4429949960004,None,748.4429949960004,None,d,0,0.37502592599958007,748.4429949960004,None,748.8425688719999,None,748.8425688719999,None,d,0.1512867350002125,748.8425688719999,None,749.0262991099999,None,,,,,,,,,,,,,sub-08,10/12/2002,2: Female,25/09/2023,002,1: right,2023_Sep_25_1823,[FINAL]_fmri_multiplication,2021.2.3,59.981449417183796
block7.xlsx,160,7.5,2.7,6 x 7,48,23,7 x 6 = 48,large-sized_high-interference,large-sized,high-interference,22,IncorrectRESP,d,0,2,2,2,0,11,11,11,,,,,,,,,,,,,,,751.0266380960002,None,751.5267660560003,None,753.5261491990004,None,754.2762063190003,None,754.5268544110004,None,754.5268544110004,None,a,0,0.395030844,754.5268544110004,None,754.9427417030001,None,754.9427417030001,None,d,0.23512456200023735,754.9427417030001,None,755.2101526260003,None,,,,,,,,,,,,,sub-08,10/12/2002,2: Female,25/09/2023,002,1: right,2023_Sep_25_1823,[FINAL]_fmri_multiplication,2021.2.3,59.981449417183796
block7.xlsx,170.2,7.5,7,5 x 7,35,17,7 x 5 = 35,large-sized_low-interference,large-sized,low-interference,7,CorrectRESP,a,0,2,2,2,0,12,12,12,,,,,,,,,,,,,,,757.9092869389997,None,758.4112518809998,None,760.4261102310002,None,761.1762395859996,None,761.4291902249997,None,761.4291902249997,None,d,0,0.588823744,761.4291902249997,None,762.0423926,None,762.0423926,None,d,0.15958596099972056,762.0423926,None,762.2261537209997,None,,,,,,,,,,,,,sub-08,10/12/2002,2: Female,25/09/2023,002,1: right,2023_Sep_25_1823,[FINAL]_fmri_multiplication,2021.2.3,59.981449417183796
block7.xlsx,184.7,7.5,3,3 x 9,27,19,9 x 3 = 27,large-sized_high-interference,large-sized,high-interference,9,CorrectRESP,a,0,2,2,2,0,13,13,13,,,,,,,,,,,,,,,769.2261073720001,None,769.7259235880001,None,771.7260107,None,772.4758831970003,None,772.7262026819999,None,772.7262026819999,None,d,0,0.47577158200056147,772.7262026819999,None,773.2256300899999,None,773.2256300899999,None,d,0.16025920700030838,773.2256300899999,None,773.4089372669996,None,,,,,,,,,,,,,sub-08,10/12/2002,2: Female,25/09/2023,002,1: right,2023_Sep_25_1823,[FINAL]_fmri_multiplication,2021.2.3,59.981449417183796
block7.xlsx,195.2,7.5,7.1,4 x 3,15,9,3 x 4 = 15,small-sized_high-interference,small-sized,high-interference,10,IncorrectRESP,d,0,2,2,2,0,14,14,14,,,,,,,,,,,,,,,776.4090902939997,None,776.9079909689999,None,778.9075007000001,None,779.6594181330001,None,779.9091424,None,779.9091424,None,a,0,0.572868122,779.9091424,None,780.5087636810003,None,780.5087636810003,None,d,0.10923636999996233,780.5087636810003,None,780.6424059569999,None,,,,,,,,,,,,,sub-08,10/12/2002,2: Female,25/09/2023,002,1: right,2023_Sep_25_1823,[FINAL]_fmri_multiplication,2021.2.3,59.981449417183796
block7.xlsx,209.8,7.5,3.9,2 x 8,18,5,8 x 2 = 18,small-sized_low-interference,small-sized,low-interference,7,IncorrectRESP,d,0,2,2,2,0,15,15,15,,,,,,,,,,,,,,,787.7432273679997,None,788.2432997,None,790.2424062789996,None,790.9932368,None,791.2428491520004,None,791.2428491520004,None,a,0,0.5591385220004668,791.2428491520004,None,791.8245776719996,None,791.8245776719996,None,d,0.10525003099974128,791.8245776719996,None,791.959875,None,,,,,,,,,,,,,sub-08,10/12/2002,2: Female,25/09/2023,002,1: right,2023_Sep_25_1823,[FINAL]_fmri_multiplication,2021.2.3,59.981449417183796
block7.xlsx,221.2,7.5,13.2,8 x 5,40,21,5 x 8 = 40,large-sized_high-interference,large-sized,high-interference,9,CorrectRESP,a,0,2,2,2,0,16,16,16,,,,,,,,,,,,,,,795.8595116810002,None,796.3594128189998,None,798.3595360970003,None,799.1095242430001,None,799.3593994089997,None,799.3593994089997,None,d,0,0.3385541879997618,799.3593994089997,None,799.7260549590001,None,799.7260549590001,None,d,0.1480841500006136,799.7260549590001,None,799.8923667,None,,,,,,,,,,,,,sub-08,10/12/2002,2: Female,25/09/2023,002,1: right,2023_Sep_25_1823,[FINAL]_fmri_multiplication,2021.2.3,59.981449417183796
block7.xlsx,241.9,7.5,8.7,3 x 7,24,11,7 x 3 = 24,small-sized_high-interference,small-sized,high-interference,13,IncorrectRESP,d,0,2,2,2,0,17,17,17,,,,,,,,,,,,,,,813.0923144059998,None,813.6097125,None,815.6095281759999,None,816.3599711099996,None,816.6094009660001,None,816.6094009660001,None,a,0,0.6645825519999562,816.6094009660001,None,817.2923339879999,None,817.2923339879999,None,d,0.12555432699991798,817.2923339879999,None,817.4425900980004,None,,,,,,,,,,,,,sub-08,10/12/2002,2: Female,25/09/2023,002,1: right,2023_Sep_25_1823,[FINAL]_fmri_multiplication,2021.2.3,59.981449417183796
block7.xlsx,258.1,7.5,8.1,6 x 6,30,13,6 x 6 = 30,large-sized_low-interference,large-sized,low-interference,4,IncorrectRESP,d,0,2,2,2,0,18,18,18,,,,,,,,,,,,,,,826.1404032,None,826.6599085890002,None,828.6591466,None,829.4097694760003,None,829.6591217670002,None,829.6591217670002,None,a,0,1.0468016250006258,829.6591217670002,None,830.7254639129997,None,830.7254639129997,None,d,0.16445556899998337,830.7254639129997,None,830.9075640179999,None,,,,,,,,,,,,,sub-08,10/12/2002,2: Female,25/09/2023,002,1: right,2023_Sep_25_1823,[FINAL]_fmri_multiplication,2021.2.3,59.981449417183796
block7.xlsx,273.7,7.5,8.2,8 x 5,45,21,5 x 8 = 45,large-sized_high-interference,large-sized,high-interference,9,IncorrectRESP,d,0,2,2,2,0,19,19,19,,,,,,,,,,,,,,,839.0095588180002,None,839.5092577570003,None,841.5095250410004,None,842.2594086979998,None,842.5075106350005,None,842.5075106350005,None,a,0,0.6222964329999741,842.5075106350005,None,843.1592274929999,None,843.1592274929999,None,d,0.08278185,843.1592274929999,None,843.25883,None,,,,,,,,,,,,,sub-08,10/12/2002,2: Female,25/09/2023,002,1: right,2023_Sep_25_1823,[FINAL]_fmri_multiplication,2021.2.3,59.981449417183796
block7.xlsx,289.4,7.5,5.5,4 x 3,12,9,3 x 4 = 12,small-sized_high-interference,small-sized,high-interference,10,CorrectRESP,a,0,2,2,2,0,20,20,20,,,,,,,,,,,,,,,851.4594679720003,None,851.9588307419999,None,853.9592437540005,None,854.7096667920005,None,854.9599779640002,None,854.9599779640002,None,d,0,0.3540101280004819,854.9599779640002,None,855.3428424820004,None,855.3428424820004,None,d,0.1391536500004804,855.3428424820004,None,855.5097335720002,None,,,,,,,,,,,,,sub-08,10/12/2002,2: Female,25/09/2023,002,1: right,2023_Sep_25_1823,[FINAL]_fmri_multiplication,2021.2.3,59.981449417183796
block7.xlsx,302.4,7.5,4.8,3 x 9,24,19,9 x 3 = 24,large-sized_high-interference,large-sized,high-interference,9,IncorrectRESP,d,0,2,2,2,0,21,21,21,,,,,,,,,,,,,,,861.0094352,None,861.5099664,None,863.5098584560001,None,864.2596423969999,None,864.5096523940001,None,864.5096523940001,None,a,0,0.5484688209999149,864.5096523940001,None,865.0758496429999,None,865.0758496429999,None,d,0.14216481099992961,865.0758496429999,None,865.2427201549999,None,,,,,,,,,,,,,sub-08,10/12/2002,2: Female,25/09/2023,002,1: right,2023_Sep_25_1823,[FINAL]_fmri_multiplication,2021.2.3,59.981449417183796
block7.xlsx,314.7,7.5,2.5,5 x 9,45,15,9 x 5 = 45,large-sized_low-interference,large-sized,low-interference,6,CorrectRESP,a,0,2,2,2,0,22,22,22,,,,,,,,,,,,,,,870.0429261729996,None,870.5432702420003,None,872.5428032480004,None,873.2919265190003,None,873.5429631050001,None,873.5429631050001,None,d,0,0.4829766249995373,873.5429631050001,None,874.0426776350005,None,874.0426776350005,None,d,0.1512121429996114,874.0426776350005,None,874.2260697920001,None,,,,,,,,,,,,,sub-08,10/12/2002,2: Female,25/09/2023,002,1: right,2023_Sep_25_1823,[FINAL]_fmri_multiplication,2021.2.3,59.981449417183796
block7.xlsx,324.7,7.5,2.8,6 x 7,42,23,7 x 6 = 42,large-sized_high-interference,large-sized,high-interference,22,CorrectRESP,a,0,2,2,2,0,23,23,23,,,,,,,,,,,,,,,876.7261431779998,None,877.2259899,None,879.2248767970004,None,879.9761495100001,None,880.2259506740002,None,880.2259506740002,None,d,0,0.4320468500000061,880.2259506740002,None,880.6765934539999,None,880.6765934539999,None,d,0.17337069800032623,880.6765934539999,None,880.8758434950005,None,,,,,,,,,,,,,sub-08,10/12/2002,2: Female,25/09/2023,002,1: right,2023_Sep_25_1823,[FINAL]_fmri_multiplication,2021.2.3,59.981449417183796
block7.xlsx,,,,,,,,,,,,,,0,2,2,2,,,,,0,0,0,0,,,,,,,,,,,,,,,,,,,,,,,,,,,,,,,,,,,,,,883.6761966040003,None,883.6761966040003,None,,,,,,,,,sub-08,10/12/2002,2: Female,25/09/2023,002,1: right,2023_Sep_25_1823,[FINAL]_fmri_multiplication,2021.2.3,59.981449417183796
block7.xlsx,,,,,,,,,,,,,,0,2,2,2,,,,,1,0,1,0,,,,,,,,,,,,,,,,,,,,,,,,,,,,,,,,,,,,,,884.6759389190001,884.6759389190001,884.6759389190001,884.6759389190001,,,,,,,,,sub-08,10/12/2002,2: Female,25/09/2023,002,1: right,2023_Sep_25_1823,[FINAL]_fmri_multiplication,2021.2.3,59.981449417183796
block7.xlsx,,,,,,,,,,,,,,0,2,2,2,,,,,2,0,2,0,,,,,,,,,,,,,,,,,,,,,,,,,,,,,,,,,,,,,,885.6761550210003,885.6761550210003,885.6761550210003,885.6761550210003,,,,,,,,,sub-08,10/12/2002,2: Female,25/09/2023,002,1: right,2023_Sep_25_1823,[FINAL]_fmri_multiplication,2021.2.3,59.981449417183796
block7.xlsx,,,,,,,,,,,,,,0,2,2,2,,,,,3,0,3,0,,,,,,,,,,,,,,,,,,,,,,,,,,,,,,,,,,,,,,886.6764679770004,886.6764679770004,886.6764679770004,886.6764679770004,,,,,,,,,sub-08,10/12/2002,2: Female,25/09/2023,002,1: right,2023_Sep_25_1823,[FINAL]_fmri_multiplication,2021.2.3,59.981449417183796
block7.xlsx,,,,,,,,,,,,,,0,2,2,2,,,,,4,0,4,0,,,,,,,,,,,,,,,,,,,,,,,,,,,,,,,,,,,,,,887.6759494030002,887.6759494030002,887.6759494030002,887.6759494030002,,,,,,,,,sub-08,10/12/2002,2: Female,25/09/2023,002,1: right,2023_Sep_25_1823,[FINAL]_fmri_multiplication,2021.2.3,59.981449417183796
block7.xlsx,,,,,,,,,,,,,,0,2,2,2,,,,,5,0,5,0,,,,,,,,,,,,,,,,,,,,,,,,,,,,,,,,,,,,,,888.6762848790004,888.6762848790004,888.6762848790004,888.6762848790004,,,,,,,,,sub-08,10/12/2002,2: Female,25/09/2023,002,1: right,2023_Sep_25_1823,[FINAL]_fmri_multiplication,2021.2.3,59.981449417183796
block7.xlsx,,,,,,,,,,,,,,0,2,2,2,,,,,6,0,6,0,,,,,,,,,,,,,,,,,,,,,,,,,,,,,,,,,,,,,,889.6764579540004,889.6764579540004,889.6764579540004,889.6764579540004,,,,,,,,,sub-08,10/12/2002,2: Female,25/09/2023,002,1: right,2023_Sep_25_1823,[FINAL]_fmri_multiplication,2021.2.3,59.981449417183796
block7.xlsx,,,,,,,,,,,,,,0,2,2,2,,,,,7,0,7,0,,,,,,,,,,,,,,,,,,,,,,,,,,,,,,,,,,,,,,890.6766378689999,890.6766378689999,890.6766378689999,890.6766378689999,,,,,,,,,sub-08,10/12/2002,2: Female,25/09/2023,002,1: right,2023_Sep_25_1823,[FINAL]_fmri_multiplication,2021.2.3,59.981449417183796
block7.xlsx,,,,,,,,,,,,,,0,2,2,2,,,,,8,0,8,0,,,,,,,,,,,,,,,,,,,,,,,,,,,,,,,,,,,,,,891.6775923490004,None,891.6775923490004,None,,,,,,,,,sub-08,10/12/2002,2: Female,25/09/2023,002,1: right,2023_Sep_25_1823,[FINAL]_fmri_multiplication,2021.2.3,59.981449417183796
block7.xlsx,,,,,,,,,,,,,,0,2,2,2,,,,,9,0,9,0,,,,,,,,,,,,,,,,,,,,,,,,,,,,,,,,,,,,,,892.6950146910003,None,892.6950146910003,None,,,,,,,,,sub-08,10/12/2002,2: Female,25/09/2023,002,1: right,2023_Sep_25_1823,[FINAL]_fmri_multiplication,2021.2.3,59.981449417183796
block7.xlsx,,,,,,,,,,,,,,0,2,2,2,,,,,10,0,10,0,,,,,,,,,,,,,,,,,,,,,,,,,,,,,,,,,,,,,,893.6781157960004,None,893.6781157960004,None,,,,,,,,,sub-08,10/12/2002,2: Female,25/09/2023,002,1: right,2023_Sep_25_1823,[FINAL]_fmri_multiplication,2021.2.3,59.981449417183796
block7.xlsx,,,,,,,,,,,,,,0,2,2,2,,,,,11,0,11,0,,,,,,,,,,,,,,,,,,,,,,,,,,,,,,,,,,,,,,894.6934006560004,None,894.6934006560004,None,,,,,,,,,sub-08,10/12/2002,2: Female,25/09/2023,002,1: right,2023_Sep_25_1823,[FINAL]_fmri_multiplication,2021.2.3,59.981449417183796
block7.xlsx,,,,,,,,,,,,,,0,2,2,2,,,,,12,0,12,0,,,,,,,,,,,,,,,,,,,,,,,,,,,,,,,,,,,,,,895.6779142329997,None,895.6779142329997,None,,,,,,,,,sub-08,10/12/2002,2: Female,25/09/2023,002,1: right,2023_Sep_25_1823,[FINAL]_fmri_multiplication,2021.2.3,59.981449417183796
block7.xlsx,,,,,,,,,,,,,,0,2,2,2,,,,,13,0,13,0,,,,,,,,,,,,,,,,,,,,,,,,,,,,,,,,,,,,,,896.6906977999997,None,896.6906977999997,None,,,,,,,,,sub-08,10/12/2002,2: Female,25/09/2023,002,1: right,2023_Sep_25_1823,[FINAL]_fmri_multiplication,2021.2.3,59.981449417183796
block7.xlsx,,,,,,,,,,,,,,0,2,2,2,,,,,14,0,14,0,,,,,,,,,,,,,,,,,,,,,,,,,,,,,,,,,,,,,,897.6932269910003,None,897.6932269910003,None,,,,,,,,,sub-08,10/12/2002,2: Female,25/09/2023,002,1: right,2023_Sep_25_1823,[FINAL]_fmri_multiplication,2021.2.3,59.981449417183796
block7.xlsx,,,,,,,,,,,,,,0,2,2,2,,,,,15,0,15,0,,,,,,,,,,,,,,,,,,,,,,,,,,,,,,,,,,,,,,898.6765185559998,None,898.6765185559998,None,,,,,,,,,sub-08,10/12/2002,2: Female,25/09/2023,002,1: right,2023_Sep_25_1823,[FINAL]_fmri_multiplication,2021.2.3,59.981449417183796
block7.xlsx,,,,,,,,,,,,,,0,2,2,2,,,,,16,0,16,0,,,,,,,,,,,,,,,,,,,,,,,,,,,,,,,,,,,,,,899.6777809269997,899.6777809269997,899.6777809269997,899.6777809269997,,,,,,,,,sub-08,10/12/2002,2: Female,25/09/2023,002,1: right,2023_Sep_25_1823,[FINAL]_fmri_multiplication,2021.2.3,59.981449417183796
block7.xlsx,,,,,,,,,,,,,,0,2,2,2,,,,,17,0,17,0,,,,,,,,,,,,,,,,,,,,,,,,,,,,,,,,,,,,,,900.6769668779998,None,900.6769668779998,None,,,,,,,,,sub-08,10/12/2002,2: Female,25/09/2023,002,1: right,2023_Sep_25_1823,[FINAL]_fmri_multiplication,2021.2.3,59.981449417183796
block7.xlsx,,,,,,,,,,,,,,0,2,2,2,,,,,18,0,18,0,,,,,,,,,,,,,,,,,,,,,,,,,,,,,,,,,,,,,,901.6761893169996,901.6761893169996,901.6761893169996,901.6761893169996,,,,,,,,,sub-08,10/12/2002,2: Female,25/09/2023,002,1: right,2023_Sep_25_1823,[FINAL]_fmri_multiplication,2021.2.3,59.981449417183796
block7.xlsx,,,,,,,,,,,,,,0,2,2,2,,,,,19,0,19,0,,,,,,,,,,,,,,,,,,,,,,,,,,,,,,,,,,,,,,902.6761418,902.6761418,902.6761418,902.6761418,,,,,,,,,sub-08,10/12/2002,2: Female,25/09/2023,002,1: right,2023_Sep_25_1823,[FINAL]_fmri_multiplication,2021.2.3,59.981449417183796
block7.xlsx,,,,,,,,,,,,,,0,2,2,2,,,,,20,0,20,0,,,,,,,,,,,,,,,,,,,,,,,,,,,,,,,,,,,,,,903.6765361090002,None,903.6765361090002,None,,,,,,,,,sub-08,10/12/2002,2: Female,25/09/2023,002,1: right,2023_Sep_25_1823,[FINAL]_fmri_multiplication,2021.2.3,59.981449417183796
block7.xlsx,,,,,,,,,,,,,,0,2,2,2,,,,,21,0,21,0,,,,,,,,,,,,,,,,,,,,,,,,,,,,,,,,,,,,,,904.6759893990002,904.6759893990002,904.6759893990002,904.6759893990002,,,,,,,,,sub-08,10/12/2002,2: Female,25/09/2023,002,1: right,2023_Sep_25_1823,[FINAL]_fmri_multiplication,2021.2.3,59.981449417183796
block7.xlsx,,,,,,,,,,,,,,0,2,2,2,,,,,22,0,22,0,,,,,,,,,,,,,,,,,,,,,,,,,,,,,,,,,,,,,,905.6744986390004,905.6744986390004,905.6744986390004,905.6744986390004,,,,,,,,,sub-08,10/12/2002,2: Female,25/09/2023,002,1: right,2023_Sep_25_1823,[FINAL]_fmri_multiplication,2021.2.3,59.981449417183796
block7.xlsx,,,,,,,,,,,,,,0,2,2,2,,,,,23,0,23,0,,,,,,,,,,,,,,,,,,,,,,,,,,,,,,,,,,,,,,906.6770650119997,906.6770650119997,906.6770650119997,906.6770650119997,,,,,,,,,sub-08,10/12/2002,2: Female,25/09/2023,002,1: right,2023_Sep_25_1823,[FINAL]_fmri_multiplication,2021.2.3,59.981449417183796
block7.xlsx,,,,,,,,,,,,,,0,2,2,2,,,,,24,0,24,0,,,,,,,,,,,,,,,,,,,,,,,,,,,,,,,,,,,,,,907.6934155569998,None,907.6934155569998,None,,,,,,,,,sub-08,10/12/2002,2: Female,25/09/2023,002,1: right,2023_Sep_25_1823,[FINAL]_fmri_multiplication,2021.2.3,59.981449417183796
block7.xlsx,,,,,,,,,,,,,,0,2,2,2,,,,,25,0,25,0,,,,,,,,,,,,,,,,,,,,,,,,,,,,,,,,,,,,,,908.6911966970001,None,908.6911966970001,None,,,,,,,,,sub-08,10/12/2002,2: Female,25/09/2023,002,1: right,2023_Sep_25_1823,[FINAL]_fmri_multiplication,2021.2.3,59.981449417183796
block7.xlsx,,,,,,,,,,,,,,0,2,2,2,,,,,26,0,26,0,,,,,,,,,,,,,,,,,,,,,,,,,,,,,,,,,,,,,,909.6936370109997,None,909.6936370109997,None,,,,,,,,,sub-08,10/12/2002,2: Female,25/09/2023,002,1: right,2023_Sep_25_1823,[FINAL]_fmri_multiplication,2021.2.3,59.981449417183796
block7.xlsx,,,,,,,,,,,,,,0,2,2,2,,,,,27,0,27,0,,,,,,,,,,,,,,,,,,,,,,,,,,,,,,,,,,,,,,910.6926463,None,910.6926463,None,,,,,,,,,sub-08,10/12/2002,2: Female,25/09/2023,002,1: right,2023_Sep_25_1823,[FINAL]_fmri_multiplication,2021.2.3,59.981449417183796
block7.xlsx,,,,,,,,,,,,,,0,2,2,2,,,,,28,0,28,0,,,,,,,,,,,,,,,,,,,,,,,,,,,,,,,,,,,,,,911.6923166610004,None,911.6923166610004,None,,,,,,,,,sub-08,10/12/2002,2: Female,25/09/2023,002,1: right,2023_Sep_25_1823,[FINAL]_fmri_multiplication,2021.2.3,59.981449417183796
block7.xlsx,,,,,,,,,,,,,,0,2,2,2,,,,,29,0,29,0,,,,,,,,,,,,,,,,,,,,,,,,,,,,,,,,,,,,,,912.6926850979999,None,912.6926850979999,None,,,,,,,,,sub-08,10/12/2002,2: Female,25/09/2023,002,1: right,2023_Sep_25_1823,[FINAL]_fmri_multiplication,2021.2.3,59.981449417183796
block7.xlsx,,,,,,,,,,,,,,0,2,2,2,,,,,,,,,,,,,,,,,,,,,,,,,,,,,,,,,,,,,,,,,,,,,,,,,,,,,,,,,,sub-08,10/12/2002,2: Female,25/09/2023,002,1: right,2023_Sep_25_1823,[FINAL]_fmri_multiplication,2021.2.3,59.981449417183796
block8.xlsx,10,7.5,4.2,9 x 9,81,16,9 x 9 = 81,large-sized_low-interference,large-sized,low-interference,6,CorrectRESP,a,0,3,3,3,0,0,0,0,,,,,,,,,,,,,913.6932175689999,None,923.7156874680004,None,924.1762008730002,None,926.1765790480003,None,926.9261783089996,None,927.1766650669997,None,927.1766650669997,None,d,0,0.3692018419997112,927.1766650669997,None,927.5766335899998,None,927.5766335899998,None,d,0.3452582599993548,927.5766335899998,None,927.9427918849997,None,,,,,,,,,,,,,sub-08,10/12/2002,2: Female,25/09/2023,002,1: right,2023_Sep_25_1823,[FINAL]_fmri_multiplication,2021.2.3,59.981449417183796
block8.xlsx,21.7,7.5,5.5,5 x 4,20,8,4 x 5 = 20,small-sized_high-interference,small-sized,high-interference,8,CorrectRESP,a,0,3,3,3,0,1,1,1,,,,,,,,,,,,,,,932.1432479670002,None,932.6426972050003,None,934.6424549229996,None,935.3930540640004,None,935.6425461279996,None,935.6425461279996,None,d,0,0.36733104700033437,935.6425461279996,None,936.0260539170004,None,936.0260539170004,None,d,0.15983251699981338,936.0260539170004,None,936.2090740880003,None,,,,,,,,,,,,,sub-08,10/12/2002,2: Female,25/09/2023,002,1: right,2023_Sep_25_1823,[FINAL]_fmri_multiplication,2021.2.3,59.981449417183796
block8.xlsx,34.7,7.5,13.5,9 x 4,32,20,4 x 9 = 32,large-sized_high-interference,large-sized,high-interference,9,IncorrectRESP,d,0,3,3,3,0,2,2,2,,,,,,,,,,,,,,,941.7094897079996,None,942.2115677259999,None,944.2262382959998,None,944.9759532110002,None,945.2260478959997,None,945.2260478959997,None,a,0,0.45593321199976344,945.2260478959997,None,945.7094553779998,None,945.7094553779998,None,d,0.1645764599998074,945.7094553779998,None,945.8922405860003,None,,,,,,,,,,,,,sub-08,10/12/2002,2: Female,25/09/2023,002,1: right,2023_Sep_25_1823,[FINAL]_fmri_multiplication,2021.2.3,59.981449417183796
block8.xlsx,55.7,7.5,3.1,4 x 6,24,10,6 x 4 = 24,small-sized_high-interference,small-sized,high-interference,12,CorrectRESP,a,0,3,3,3,0,3,3,3,,,,,,,,,,,,,,,959.3929306800001,None,959.8932187500004,None,961.8908254460002,None,962.6432520919998,None,962.8930869019996,None,962.8930869019996,None,d,0,0.3968454659998315,962.8930869019996,None,963.3093383,None,963.3093383,None,d,0.15654795199952787,963.3093383,None,963.4929776299996,None,,,,,,,,,,,,,sub-08,10/12/2002,2: Female,25/09/2023,002,1: right,2023_Sep_25_1823,[FINAL]_fmri_multiplication,2021.2.3,59.981449417183796
block8.xlsx,66.3,7.5,7.7,2 x 6,10,6,6 x 2 = 10,small-sized_low-interference,small-sized,low-interference,3,IncorrectRESP,d,0,3,3,3,0,4,4,4,,,,,,,,,,,,,,,966.5931854720002,None,967.0930137,None,969.0932066790001,None,969.8430611009999,None,970.0929379,None,970.0929379,None,a,0,0.5250652360000458,970.0929379,None,970.6421061000001,None,970.6421061000001,None,d,0.41584384799989493,970.6421061000001,None,971.0756745130002,None,,,,,,,,,,,,,sub-08,10/12/2002,2: Female,25/09/2023,002,1: right,2023_Sep_25_1823,[FINAL]_fmri_multiplication,2021.2.3,59.981449417183796
block8.xlsx,81.5,7.5,6.9,7 x 7,49,18,7 x 7 = 49,large-sized_low-interference,large-sized,low-interference,7,CorrectRESP,a,0,3,3,3,0,5,5,5,,,,,,,,,,,,,,,978.7762468250003,None,979.2759229200001,None,981.2756468750003,None,982.0260858049996,None,982.2760837879996,None,982.2760837879996,None,d,0,0.45379114400020626,982.2760837879996,None,982.7593712119997,None,982.7593712119997,None,d,0.14658589200007555,982.7593712119997,None,982.9256465,None,,,,,,,,,,,,,sub-08,10/12/2002,2: Female,25/09/2023,002,1: right,2023_Sep_25_1823,[FINAL]_fmri_multiplication,2021.2.3,59.981449417183796
block8.xlsx,95.9,7.5,12.3,2 x 6,12,6,6 x 2 = 12,small-sized_low-interference,small-sized,low-interference,3,CorrectRESP,a,0,3,3,3,0,6,6,6,,,,,,,,,,,,,,,989.8260911520001,None,990.3266544090002,None,992.3262067470005,None,993.0762372,None,993.3264939589999,None,993.3264939589999,None,d,0,0.4914386340005876,993.3264939589999,None,993.8423751,None,993.8423751,None,d,0.14348074200006522,993.8423751,None,994.0092519,None,,,,,,,,,,,,,sub-08,10/12/2002,2: Female,25/09/2023,002,1: right,2023_Sep_25_1823,[FINAL]_fmri_multiplication,2021.2.3,59.981449417183796
block8.xlsx,115.7,7.5,2.7,7 x 8,63,22,8 x 7 = 63,large-sized_high-interference,large-sized,high-interference,9,IncorrectRESP,d,0,3,3,3,0,7,7,7,,,,,,,,,,,,,,,1006.3093714369998,None,1006.8090467740003,None,1008.8100530880001,None,1009.5594927230004,None,1009.8093299780003,None,1009.8093299780003,None,a,0,0.8966745629995785,1009.8093299780003,None,1010.7255884719998,None,1010.7255884719998,None,d,0.22832975199980865,1010.7255884719998,None,1010.97569,None,,,,,,,,,,,,,sub-08,10/12/2002,2: Female,25/09/2023,002,1: right,2023_Sep_25_1823,[FINAL]_fmri_multiplication,2021.2.3,59.981449417183796
block8.xlsx,125.9,7.5,7.8,9 x 2,16,2,2 x 9 = 16,small-sized_low-interference,small-sized,low-interference,7,IncorrectRESP,d,0,3,3,3,0,8,8,8,,,,,,,,,,,,,,,1013.675839,None,1014.1757275219998,None,1016.1762725489998,None,1016.9261723210002,None,1017.1766274410002,None,1017.1766274410002,None,a,0,0.6893994480005858,1017.1766274410002,None,1017.8929445989997,None,1017.8929445989997,None,d,0.1250717889997759,1017.8929445989997,None,1018.0424647010004,None,,,,,,,,,,,,,sub-08,10/12/2002,2: Female,25/09/2023,002,1: right,2023_Sep_25_1823,[FINAL]_fmri_multiplication,2021.2.3,59.981449417183796
block8.xlsx,141.2,7.5,2.9,8 x 3,24,12,3 x 8 = 24,small-sized_high-interference,small-sized,high-interference,13,CorrectRESP,a,0,3,3,3,0,9,9,9,,,,,,,,,,,,,,,1025.8427217340004,None,1026.342807,None,1028.342928,None,1029.0928771830004,None,1029.3429020679996,None,1029.3429020679996,None,d,0,0.4110982909996892,1029.3429020679996,None,1029.7758123980002,None,1029.7758123980002,None,d,0.1540579720003734,1029.7758123980002,None,1029.959481,None,,,,,,,,,,,,,sub-08,10/12/2002,2: Female,25/09/2023,002,1: right,2023_Sep_25_1823,[FINAL]_fmri_multiplication,2021.2.3,59.981449417183796
block8.xlsx,151.6,7.5,2,4 x 8,32,24,8 x 4 = 32,large-sized_high-interference,large-sized,high-interference,25,CorrectRESP,a,0,3,3,3,0,10,10,10,,,,,,,,,,,,,,,1032.8566469759999,None,1033.360026,None,1035.359873,None,1036.1099118029997,None,1036.3601953890002,None,1036.3601953890002,None,d,0,0.5217976330004603,1036.3601953890002,None,1036.9099794780004,None,1036.9099794780004,None,d,0.14802194700041582,1036.9099794780004,None,1037.0760375950003,None,,,,,,,,,,,,,sub-08,10/12/2002,2: Female,25/09/2023,002,1: right,2023_Sep_25_1823,[FINAL]_fmri_multiplication,2021.2.3,59.981449417183796
block8.xlsx,161.1,7.5,13.1,9 x 9,72,16,9 x 9 = 72,large-sized_low-interference,large-sized,low-interference,6,IncorrectRESP,d,0,3,3,3,0,11,11,11,,,,,,,,,,,,,,,1039.0760358850002,None,1039.5764403470002,None,1041.5762351780004,None,1042.3262865750003,None,1042.575904,None,1042.575904,None,a,0,0.506076122,1042.575904,None,1043.109509,None,1043.109509,None,d,0.10847850699974515,1043.109509,None,1043.2428969000002,None,,,,,,,,,,,,,sub-08,10/12/2002,2: Female,25/09/2023,002,1: right,2023_Sep_25_1823,[FINAL]_fmri_multiplication,2021.2.3,59.981449417183796
block8.xlsx,181.7,7.5,2.4,5 x 4,16,8,4 x 5 = 16,small-sized_high-interference,small-sized,high-interference,8,IncorrectRESP,d,0,3,3,3,0,12,12,12,,,,,,,,,,,,,,,1056.34224,None,1056.8431786350002,None,1058.8427313929997,None,1059.5923175830003,None,1059.8421285630002,None,1059.8421285630002,None,a,0,0.5357381809999424,1059.8421285630002,None,1060.4092173170002,None,1060.4092173170002,None,d,0.12865554899963172,1060.4092173170002,None,1060.5589780050004,None,,,,,,,,,,,,,sub-08,10/12/2002,2: Female,25/09/2023,002,1: right,2023_Sep_25_1823,[FINAL]_fmri_multiplication,2021.2.3,59.981449417183796
block8.xlsx,191.6,7.5,5.7,7 x 7,56,18,7 x 7 = 56,large-sized_low-interference,large-sized,low-interference,7,IncorrectRESP,d,0,3,3,3,0,13,13,13,,,,,,,,,,,,,,,1062.9589958770002,None,1063.4589983449996,None,1065.4594766359996,None,1066.209628,None,1066.4767409639999,None,1066.4767409639999,None,a,0,0.5331249629998638,1066.4767409639999,None,1067.0402015609998,None,1067.0402015609998,None,d,0.10571337999954267,1067.0402015609998,None,1067.1600202319996,None,,,,,,,,,,,,,sub-08,10/12/2002,2: Female,25/09/2023,002,1: right,2023_Sep_25_1823,[FINAL]_fmri_multiplication,2021.2.3,59.981449417183796
block8.xlsx,204.8,7.5,2.2,9 x 2,18,2,2 x 9 = 18,small-sized_low-interference,small-sized,low-interference,7,CorrectRESP,a,0,3,3,3,0,14,14,14,,,,,,,,,,,,,,,1072.8595843450003,None,1073.3602795160004,None,1075.359814,None,1076.1096599760003,None,1076.359211,None,1076.359211,None,d,0,0.3786997249999331,1076.359211,None,1076.7588541779996,None,1076.7588541779996,None,d,0.1711448730002303,1076.7588541779996,None,1076.9595146190004,None,,,,,,,,,,,,,sub-08,10/12/2002,2: Female,25/09/2023,002,1: right,2023_Sep_25_1823,[FINAL]_fmri_multiplication,2021.2.3,59.981449417183796
block8.xlsx,214.5,7.5,5.2,8 x 3,21,12,3 x 8 = 21,small-sized_high-interference,small-sized,high-interference,13,IncorrectRESP,d,0,3,3,3,0,15,15,15,,,,,,,,,,,,,,,1079.159229,None,1079.6592340180005,None,1081.6595578530005,None,1082.4095045559998,None,1082.6597649329997,None,1082.6597649329997,None,a,0,0.47812269699988974,1082.6597649329997,None,1083.1588404330005,None,1083.1588404330005,None,d,0.075141356,1083.1588404330005,None,1083.2589830380002,None,,,,,,,,,,,,,sub-08,10/12/2002,2: Female,25/09/2023,002,1: right,2023_Sep_25_1823,[FINAL]_fmri_multiplication,2021.2.3,59.981449417183796
block8.xlsx,227.2,7.5,3.8,4 x 4,20,4,4 x 4 = 20,small-sized_low-interference,small-sized,low-interference,5,IncorrectRESP,d,0,3,3,3,0,16,16,16,,,,,,,,,,,,,,,1088.4591633219998,None,1088.959104,None,1090.959146,None,1091.7092677780001,None,1091.9600041800004,None,1091.9600041800004,None,a,0,0.4658586000005016,1091.9600041800004,None,1092.4427407820003,None,1092.4427407820003,None,d,0.10312856399923476,1092.4427407820003,None,1092.575667,None,,,,,,,,,,,,,sub-08,10/12/2002,2: Female,25/09/2023,002,1: right,2023_Sep_25_1823,[FINAL]_fmri_multiplication,2021.2.3,59.981449417183796
block8.xlsx,238.5,7.5,2,4 x 6,28,10,6 x 4 = 28,small-sized_high-interference,small-sized,high-interference,12,IncorrectRESP,d,0,3,3,3,0,17,17,17,,,,,,,,,,,,,,,1096.3761442539999,None,1096.8745587619997,None,1098.875976,None,1099.6262962310002,None,1099.8763726979996,None,1099.8763726979996,None,a,0,0.5254929380007525,1099.8763726979996,None,1100.425782,None,1100.425782,None,d,0.1360816430005798,1100.425782,None,1100.5926204010002,None,,,,,,,,,,,,,sub-08,10/12/2002,2: Female,25/09/2023,002,1: right,2023_Sep_25_1823,[FINAL]_fmri_multiplication,2021.2.3,59.981449417183796
block8.xlsx,248,7.5,4,6 x 5,30,14,5 x 6 = 30,large-sized_low-interference,large-sized,low-interference,6,CorrectRESP,a,0,3,3,3,0,18,18,18,,,,,,,,,,,,,,,1102.5932555190002,None,1103.0933407909997,None,1105.0933571309997,None,1105.8431390810001,None,1106.0914383099998,None,1106.0914383099998,None,a,1,0.46238611999979184,1106.0914383099998,None,1106.5759376409997,None,1106.5759376409997,None,d,1.2980700979996982,1106.5759376409997,None,1107.893213,None,,,,,,,,,,,,,sub-08,10/12/2002,2: Female,25/09/2023,002,1: right,2023_Sep_25_1823,[FINAL]_fmri_multiplication,2021.2.3,59.981449417183796
block8.xlsx,259.5,7.5,11.3,7 x 8,56,22,8 x 7 = 56,large-sized_high-interference,large-sized,high-interference,9,CorrectRESP,a,0,3,3,3,0,19,19,19,,,,,,,,,,,,,,,1111.8923701860003,None,1112.392045,None,1114.3927601980004,None,1115.142433,None,1115.3926153149996,None,1115.3926153149996,None,d,0,0.4253819249997832,1115.3926153149996,None,1115.8423071220004,None,1115.8423071220004,None,d,0.18376031699972373,1115.8423071220004,None,1116.042938,None,,,,,,,,,,,,,sub-08,10/12/2002,2: Female,25/09/2023,002,1: right,2023_Sep_25_1823,[FINAL]_fmri_multiplication,2021.2.3,59.981449417183796
block8.xlsx,278.3,7.5,10.9,6 x 5,36,14,5 x 6 = 36,large-sized_low-interference,large-sized,low-interference,6,IncorrectRESP,d,0,3,3,3,0,20,20,20,,,,,,,,,,,,,,,1127.3422896290003,None,1127.842711,None,1129.8425541059996,None,1130.5927964080001,None,1130.8426722579998,None,1130.8426722579998,None,a,0,0.6872018460007894,1130.8426722579998,None,1131.5579221939997,None,1131.5579221939997,None,d,0.19595128299988573,1131.5579221939997,None,1131.7757210959999,None,,,,,,,,,,,,,sub-08,10/12/2002,2: Female,25/09/2023,002,1: right,2023_Sep_25_1823,[FINAL]_fmri_multiplication,2021.2.3,59.981449417183796
block8.xlsx,296.7,7.5,3.5,9 x 4,36,20,4 x 9 = 36,large-sized_high-interference,large-sized,high-interference,9,CorrectRESP,a,0,3,3,3,0,21,21,21,,,,,,,,,,,,,,,1142.6763330430003,None,1143.1763632600005,None,1145.1766233050002,None,1145.9264947869997,None,1146.176192,None,1146.176192,None,d,0,0.441822163,1146.176192,None,1146.6422279059998,None,1146.6422279059998,None,d,0.47972343400033424,1146.6422279059998,None,1147.142252,None,,,,,,,,,,,,,sub-08,10/12/2002,2: Female,25/09/2023,002,1: right,2023_Sep_25_1823,[FINAL]_fmri_multiplication,2021.2.3,59.981449417183796
block8.xlsx,307.7,7.5,2.9,4 x 4,16,4,4 x 4 = 16,small-sized_low-interference,small-sized,low-interference,5,CorrectRESP,a,0,3,3,3,0,22,22,22,,,,,,,,,,,,,,,1150.6428385959998,None,1151.1428686850004,None,1153.1428109219996,None,1153.8928020940002,None,1154.1427547820003,None,1154.1427547820003,None,d,0,0.3871189689998573,1154.1427547820003,None,1154.5594851380001,None,1154.5594851380001,None,d,0.1384898879996399,1154.5594851380001,None,1154.7256338220004,None,,,,,,,,,,,,,sub-08,10/12/2002,2: Female,25/09/2023,002,1: right,2023_Sep_25_1823,[FINAL]_fmri_multiplication,2021.2.3,59.981449417183796
block8.xlsx,318.1,7.5,9.4,4 x 8,28,24,8 x 4 = 28,large-sized_high-interference,large-sized,high-interference,25,IncorrectRESP,d,0,3,3,3,0,23,23,23,,,,,,,,,,,,,,,1157.6260545180003,None,1158.1260372839997,None,1160.1261825279998,None,1160.8760185379997,None,1161.126003,None,1161.126003,None,a,0,0.5639639579994764,1161.126003,None,1161.7088435859996,None,1161.7088435859996,None,d,0.25302302399995824,1161.7088435859996,None,1161.9928339429998,None,,,,,,,,,,,,,sub-08,10/12/2002,2: Female,25/09/2023,002,1: right,2023_Sep_25_1823,[FINAL]_fmri_multiplication,2021.2.3,59.981449417183796
block8.xlsx,,,,,,,,,,,,,,0,3,3,3,,,,,0,0,0,0,,,,,,,,,,,,,,,,,,,,,,,,,,,,,,,,,,,,,,1171.3946633619998,None,1171.3946633619998,None,,,,,,,,,sub-08,10/12/2002,2: Female,25/09/2023,002,1: right,2023_Sep_25_1823,[FINAL]_fmri_multiplication,2021.2.3,59.981449417183796
block8.xlsx,,,,,,,,,,,,,,0,3,3,3,,,,,1,0,1,0,,,,,,,,,,,,,,,,,,,,,,,,,,,,,,,,,,,,,,1172.4112032169996,None,1172.4112032169996,None,,,,,,,,,sub-08,10/12/2002,2: Female,25/09/2023,002,1: right,2023_Sep_25_1823,[FINAL]_fmri_multiplication,2021.2.3,59.981449417183796
block8.xlsx,,,,,,,,,,,,,,0,3,3,3,,,,,2,0,2,0,,,,,,,,,,,,,,,,,,,,,,,,,,,,,,,,,,,,,,1173.4104425349997,None,1173.4104425349997,None,,,,,,,,,sub-08,10/12/2002,2: Female,25/09/2023,002,1: right,2023_Sep_25_1823,[FINAL]_fmri_multiplication,2021.2.3,59.981449417183796
block8.xlsx,,,,,,,,,,,,,,0,3,3,3,,,,,3,0,3,0,,,,,,,,,,,,,,,,,,,,,,,,,,,,,,,,,,,,,,1174.4078208279998,None,1174.4078208279998,None,,,,,,,,,sub-08,10/12/2002,2: Female,25/09/2023,002,1: right,2023_Sep_25_1823,[FINAL]_fmri_multiplication,2021.2.3,59.981449417183796
block8.xlsx,,,,,,,,,,,,,,0,3,3,3,,,,,4,0,4,0,,,,,,,,,,,,,,,,,,,,,,,,,,,,,,,,,,,,,,1175.410261,None,1175.410261,None,,,,,,,,,sub-08,10/12/2002,2: Female,25/09/2023,002,1: right,2023_Sep_25_1823,[FINAL]_fmri_multiplication,2021.2.3,59.981449417183796
block8.xlsx,,,,,,,,,,,,,,0,3,3,3,,,,,5,0,5,0,,,,,,,,,,,,,,,,,,,,,,,,,,,,,,,,,,,,,,1176.4105939729998,None,1176.4105939729998,None,,,,,,,,,sub-08,10/12/2002,2: Female,25/09/2023,002,1: right,2023_Sep_25_1823,[FINAL]_fmri_multiplication,2021.2.3,59.981449417183796
block8.xlsx,,,,,,,,,,,,,,0,3,3,3,,,,,6,0,6,0,,,,,,,,,,,,,,,,,,,,,,,,,,,,,,,,,,,,,,1177.4098906629997,None,1177.4098906629997,None,,,,,,,,,sub-08,10/12/2002,2: Female,25/09/2023,002,1: right,2023_Sep_25_1823,[FINAL]_fmri_multiplication,2021.2.3,59.981449417183796
block8.xlsx,,,,,,,,,,,,,,0,3,3,3,,,,,7,0,7,0,,,,,,,,,,,,,,,,,,,,,,,,,,,,,,,,,,,,,,1178.4109492819998,None,1178.4109492819998,None,,,,,,,,,sub-08,10/12/2002,2: Female,25/09/2023,002,1: right,2023_Sep_25_1823,[FINAL]_fmri_multiplication,2021.2.3,59.981449417183796
block8.xlsx,,,,,,,,,,,,,,0,3,3,3,,,,,8,0,8,0,,,,,,,,,,,,,,,,,,,,,,,,,,,,,,,,,,,,,,1179.4106868520003,None,1179.4106868520003,None,,,,,,,,,sub-08,10/12/2002,2: Female,25/09/2023,002,1: right,2023_Sep_25_1823,[FINAL]_fmri_multiplication,2021.2.3,59.981449417183796
block8.xlsx,,,,,,,,,,,,,,0,3,3,3,,,,,9,0,9,0,,,,,,,,,,,,,,,,,,,,,,,,,,,,,,,,,,,,,,1180.4107113910004,None,1180.4107113910004,None,,,,,,,,,sub-08,10/12/2002,2: Female,25/09/2023,002,1: right,2023_Sep_25_1823,[FINAL]_fmri_multiplication,2021.2.3,59.981449417183796
block8.xlsx,,,,,,,,,,,,,,0,3,3,3,,,,,10,0,10,0,,,,,,,,,,,,,,,,,,,,,,,,,,,,,,,,,,,,,,1181.4105301219997,None,1181.4105301219997,None,,,,,,,,,sub-08,10/12/2002,2: Female,25/09/2023,002,1: right,2023_Sep_25_1823,[FINAL]_fmri_multiplication,2021.2.3,59.981449417183796
block8.xlsx,,,,,,,,,,,,,,0,3,3,3,,,,,11,0,11,0,,,,,,,,,,,,,,,,,,,,,,,,,,,,,,,,,,,,,,1182.408324,None,1182.408324,None,,,,,,,,,sub-08,10/12/2002,2: Female,25/09/2023,002,1: right,2023_Sep_25_1823,[FINAL]_fmri_multiplication,2021.2.3,59.981449417183796
block8.xlsx,,,,,,,,,,,,,,0,3,3,3,,,,,12,0,12,0,,,,,,,,,,,,,,,,,,,,,,,,,,,,,,,,,,,,,,1183.423453,None,1183.423453,None,,,,,,,,,sub-08,10/12/2002,2: Female,25/09/2023,002,1: right,2023_Sep_25_1823,[FINAL]_fmri_multiplication,2021.2.3,59.981449417183796
block8.xlsx,,,,,,,,,,,,,,0,3,3,3,,,,,13,0,13,0,,,,,,,,,,,,,,,,,,,,,,,,,,,,,,,,,,,,,,1184.4097920880004,None,1184.4097920880004,None,,,,,,,,,sub-08,10/12/2002,2: Female,25/09/2023,002,1: right,2023_Sep_25_1823,[FINAL]_fmri_multiplication,2021.2.3,59.981449417183796
block8.xlsx,,,,,,,,,,,,,,0,3,3,3,,,,,14,0,14,0,,,,,,,,,,,,,,,,,,,,,,,,,,,,,,,,,,,,,,1185.4095412710003,None,1185.4095412710003,None,,,,,,,,,sub-08,10/12/2002,2: Female,25/09/2023,002,1: right,2023_Sep_25_1823,[FINAL]_fmri_multiplication,2021.2.3,59.981449417183796
block8.xlsx,,,,,,,,,,,,,,0,3,3,3,,,,,15,0,15,0,,,,,,,,,,,,,,,,,,,,,,,,,,,,,,,,,,,,,,1186.4126005400003,None,1186.4126005400003,None,,,,,,,,,sub-08,10/12/2002,2: Female,25/09/2023,002,1: right,2023_Sep_25_1823,[FINAL]_fmri_multiplication,2021.2.3,59.981449417183796
block8.xlsx,,,,,,,,,,,,,,0,3,3,3,,,,,16,0,16,0,,,,,,,,,,,,,,,,,,,,,,,,,,,,,,,,,,,,,,1187.408384,None,1187.408384,None,,,,,,,,,sub-08,10/12/2002,2: Female,25/09/2023,002,1: right,2023_Sep_25_1823,[FINAL]_fmri_multiplication,2021.2.3,59.981449417183796
block8.xlsx,,,,,,,,,,,,,,0,3,3,3,,,,,17,0,17,0,,,,,,,,,,,,,,,,,,,,,,,,,,,,,,,,,,,,,,1188.4107205130003,None,1188.4107205130003,None,,,,,,,,,sub-08,10/12/2002,2: Female,25/09/2023,002,1: right,2023_Sep_25_1823,[FINAL]_fmri_multiplication,2021.2.3,59.981449417183796
block8.xlsx,,,,,,,,,,,,,,0,3,3,3,,,,,18,0,18,0,,,,,,,,,,,,,,,,,,,,,,,,,,,,,,,,,,,,,,1189.4101648449996,None,1189.4101648449996,None,,,,,,,,,sub-08,10/12/2002,2: Female,25/09/2023,002,1: right,2023_Sep_25_1823,[FINAL]_fmri_multiplication,2021.2.3,59.981449417183796
block8.xlsx,,,,,,,,,,,,,,0,3,3,3,,,,,19,0,19,0,,,,,,,,,,,,,,,,,,,,,,,,,,,,,,,,,,,,,,1190.4078336829998,None,1190.4078336829998,None,,,,,,,,,sub-08,10/12/2002,2: Female,25/09/2023,002,1: right,2023_Sep_25_1823,[FINAL]_fmri_multiplication,2021.2.3,59.981449417183796
block8.xlsx,,,,,,,,,,,,,,0,3,3,3,,,,,20,0,20,0,,,,,,,,,,,,,,,,,,,,,,,,,,,,,,,,,,,,,,1191.41018,None,1191.41018,None,,,,,,,,,sub-08,10/12/2002,2: Female,25/09/2023,002,1: right,2023_Sep_25_1823,[FINAL]_fmri_multiplication,2021.2.3,59.981449417183796
block8.xlsx,,,,,,,,,,,,,,0,3,3,3,,,,,21,0,21,0,,,,,,,,,,,,,,,,,,,,,,,,,,,,,,,,,,,,,,1192.4095778150004,None,1192.4095778150004,None,,,,,,,,,sub-08,10/12/2002,2: Female,25/09/2023,002,1: right,2023_Sep_25_1823,[FINAL]_fmri_multiplication,2021.2.3,59.981449417183796
block8.xlsx,,,,,,,,,,,,,,0,3,3,3,,,,,22,0,22,0,,,,,,,,,,,,,,,,,,,,,,,,,,,,,,,,,,,,,,1193.410389,None,1193.410389,None,,,,,,,,,sub-08,10/12/2002,2: Female,25/09/2023,002,1: right,2023_Sep_25_1823,[FINAL]_fmri_multiplication,2021.2.3,59.981449417183796
block8.xlsx,,,,,,,,,,,,,,0,3,3,3,,,,,23,0,23,0,,,,,,,,,,,,,,,,,,,,,,,,,,,,,,,,,,,,,,1194.4097207329996,None,1194.4097207329996,None,,,,,,,,,sub-08,10/12/2002,2: Female,25/09/2023,002,1: right,2023_Sep_25_1823,[FINAL]_fmri_multiplication,2021.2.3,59.981449417183796
block8.xlsx,,,,,,,,,,,,,,0,3,3,3,,,,,24,0,24,0,,,,,,,,,,,,,,,,,,,,,,,,,,,,,,,,,,,,,,1195.4102879350003,None,1195.4102879350003,None,,,,,,,,,sub-08,10/12/2002,2: Female,25/09/2023,002,1: right,2023_Sep_25_1823,[FINAL]_fmri_multiplication,2021.2.3,59.981449417183796
block8.xlsx,,,,,,,,,,,,,,0,3,3,3,,,,,25,0,25,0,,,,,,,,,,,,,,,,,,,,,,,,,,,,,,,,,,,,,,1196.409786,None,1196.409786,None,,,,,,,,,sub-08,10/12/2002,2: Female,25/09/2023,002,1: right,2023_Sep_25_1823,[FINAL]_fmri_multiplication,2021.2.3,59.981449417183796
block8.xlsx,,,,,,,,,,,,,,0,3,3,3,,,,,26,0,26,0,,,,,,,,,,,,,,,,,,,,,,,,,,,,,,,,,,,,,,1197.409618,None,1197.409618,None,,,,,,,,,sub-08,10/12/2002,2: Female,25/09/2023,002,1: right,2023_Sep_25_1823,[FINAL]_fmri_multiplication,2021.2.3,59.981449417183796
block8.xlsx,,,,,,,,,,,,,,0,3,3,3,,,,,27,0,27,0,,,,,,,,,,,,,,,,,,,,,,,,,,,,,,,,,,,,,,1198.4096525100003,None,1198.4096525100003,None,,,,,,,,,sub-08,10/12/2002,2: Female,25/09/2023,002,1: right,2023_Sep_25_1823,[FINAL]_fmri_multiplication,2021.2.3,59.981449417183796
block8.xlsx,,,,,,,,,,,,,,0,3,3,3,,,,,28,0,28,0,,,,,,,,,,,,,,,,,,,,,,,,,,,,,,,,,,,,,,1199.4095748139998,None,1199.4095748139998,None,,,,,,,,,sub-08,10/12/2002,2: Female,25/09/2023,002,1: right,2023_Sep_25_1823,[FINAL]_fmri_multiplication,2021.2.3,59.981449417183796
block8.xlsx,,,,,,,,,,,,,,0,3,3,3,,,,,29,0,29,0,,,,,,,,,,,,,,,,,,,,,,,,,,,,,,,,,,,,,,1200.4097451220005,None,1200.4097451220005,None,,,,,,,,,sub-08,10/12/2002,2: Female,25/09/2023,002,1: right,2023_Sep_25_1823,[FINAL]_fmri_multiplication,2021.2.3,59.981449417183796
block8.xlsx,,,,,,,,,,,,,,0,3,3,3,,,,,,,,,,,,,,,,,,,,,,,,,,,,,,,,,,,,,,,,,,,,,,,,,,,,,,,,,,sub-08,10/12/2002,2: Female,25/09/2023,002,1: right,2023_Sep_25_1823,[FINAL]_fmri_multiplication,2021.2.3,59.981449417183796
,,,,,,,,,,,,,,,,,,,,,,,,,,,,,,,,,,,,,,,,,,,,,,,,,,,,,,,,,,,,,,,,,,,1201.4089780670001,1203.4093088090003,1203.392793,None,y,458.5471249450002,1203.392793,None,sub-08,10/12/2002,2: Female,25/09/2023,002,1: right,2023_Sep_25_1823,[FINAL]_fmri_multiplication,2021.2.3,59.981449417183796