blocks_file,start,dur,rest,mult_problemB,mult_options,stim_trial,mult_stim,type,ProblemSize,InterferenceLH,InterferenceLevel,mult_type,corrRESP,blocks_set.thisRepN,blocks_set.thisTrialN,blocks_set.thisN,blocks_set.thisIndex,TRIALS.thisRepN,TRIALS.thisTrialN,TRIALS.thisN,TRIALS.thisIndex,timer_loop.thisRepN,timer_loop.thisTrialN,timer_loop.thisN,timer_loop.thisIndex,WAIT_TEXT.started,WAIT_TEXT.stopped,scan_start_trigger.keys,scan_start_trigger.rt,scan_start_trigger.started,scan_start_trigger.stopped,MAIN_SCREEN.started,MAIN_SCREEN.stopped,Block_Text.started,Block_Text.stopped,asterisk500ms.started,asterisk500ms.stopped,mult_question_text.started,mult_question_text.stopped,equal_text.started,equal_text.stopped,blank250_text.started,blank250_text.stopped,Mult_OPTION.started,Mult_OPTION.stopped,Mult_YN.started,Mult_YN.stopped,Mult_Resp.keys,Mult_Resp.corr,Mult_Resp.rt,Mult_Resp.started,Mult_Resp.stopped,Strategy_Q.started,Strategy_Q.stopped,Strategy_Option.started,Strategy_Option.stopped,Strategy_RESP.keys,Strategy_RESP.rt,Strategy_RESP.started,Strategy_RESP.stopped,jitters.started,jitters.stopped,resting_text.started,resting_text.stopped,countdown_timer.started,countdown_timer.stopped,End_Text.started,End_Text.stopped,fixation.started,fixation.stopped,fixation_end.keys,fixation_end.rt,fixation_end.started,fixation_end.stopped,participant,Date of birth (DD/MM/YEAR),gender,Testing Date (DD/MM/YEAR),session,handedness,date,expName,psychopyVersion,frameRate
,,,,,,,,,,,,,,,,,,,,,,,,,,42.26685064100093,None,s,34.37945049599875,42.26685064100093,None,,,,,,,,,,,,,,,,,,,,,,,,,,,,,,,,,,,,,,,,,,,,sub-18,30/07/2001,1: Male,14/10/2023,001,1: right,2023_Oct_14_1706,[FINAL]_fmri_multiplication,2021.2.3,60.110774057757666
block1.xlsx,10,7.5,15.3,6 x 6,36,13,6 x 6 = 36,large-sized_low-interference,large-sized,low-interference,4,CorrectRESP,a,0,0,0,0,0,0,0,0,,,,,,,,,,,76.67046118000144,None,81.69252527500066,None,91.69614809700215,None,92.19006399900172,None,94.17105788,None,94.92043450200072,None,95.17231444700155,None,95.17231444700155,None,d,0,0.597744277,95.17231444700155,None,95.80321502800143,None,95.80321502800143,None,d,0.5589182399999117,95.80321502800143,None,96.38663246800206,None,,,,,,,,,,,,,sub-18,30/07/2001,1: Male,14/10/2023,001,1: right,2023_Oct_14_1706,[FINAL]_fmri_multiplication,2021.2.3,60.110774057757666
block1.xlsx,32.8,7.5,2.5,2 x 9,18,2,2 x 9 = 18,small-sized_low-interference,small-sized,low-interference,7,CorrectRESP,a,0,0,0,0,0,1,1,1,,,,,,,,,,,,,,,111.68732127299882,None,112.18999551700108,None,114.20415413700175,None,114.9542285940006,None,115.21824649200062,None,115.21824649200062,None,d,0,0.6958663260011235,115.21824649200062,None,115.93699873199876,None,115.93699873199876,None,d,0.5450876920003793,115.93699873199876,None,116.50357739199899,None,,,,,,,,,,,,,sub-18,30/07/2001,1: Male,14/10/2023,001,1: right,2023_Oct_14_1706,[FINAL]_fmri_multiplication,2021.2.3,60.110774057757666
block1.xlsx,42.8,7.5,3.8,8 x 4,28,24,8 x 4 = 28,large-sized_high-interference,large-sized,high-interference,25,IncorrectRESP,d,0,0,0,0,0,2,2,2,,,,,,,,,,,,,,,119.00393470600102,None,119.50561457000003,None,121.52067186299973,None,122.27029310700163,None,122.52018695999868,None,122.52018695999868,None,a,0,0.7539534880015708,122.52018695999868,None,123.30339680800171,None,123.30339680800171,None,d,0.5786610230024962,123.30339680800171,None,123.90326171700144,None,,,,,,,,,,,,,sub-18,30/07/2001,1: Male,14/10/2023,001,1: right,2023_Oct_14_1706,[FINAL]_fmri_multiplication,2021.2.3,60.110774057757666
block1.xlsx,54.1,7.5,5.5,7 x 2,14,1,7 x 2 = 14,small-sized_low-interference,small-sized,low-interference,4,CorrectRESP,a,0,0,0,0,0,3,3,3,,,,,,,,,,,,,,,127.70374198100035,None,128.20501593500012,None,130.22032565100017,None,130.9703869,None,131.22025654800018,None,131.22025654800018,None,d,0,0.629859832,131.22025654800018,None,131.87008852299914,None,131.87008852299914,None,d,0.6759830160008278,131.87008852299914,None,132.56992438499947,None,,,,,,,,,,,,,sub-18,30/07/2001,1: Male,14/10/2023,001,1: right,2023_Oct_14_1706,[FINAL]_fmri_multiplication,2021.2.3,60.110774057757666
block1.xlsx,67.1,7.5,3,7 x 7,56,18,7 x 7 = 56,large-sized_low-interference,large-sized,low-interference,7,IncorrectRESP,d,0,0,0,0,0,4,4,4,,,,,,,,,,,,,,,138.0698669980011,None,138.5701090219991,None,140.57035190999886,None,141.32034226199903,None,141.58438647200092,None,141.58438647200092,None,a,0,0.689752327,141.58438647200092,None,142.3033207619992,None,142.3033207619992,None,d,0.4667304829999921,142.3033207619992,None,142.8033890939987,None,,,,,,,,,,,,,sub-18,30/07/2001,1: Male,14/10/2023,001,1: right,2023_Oct_14_1706,[FINAL]_fmri_multiplication,2021.2.3,60.110774057757666
block1.xlsx,77.6,7.5,2.1,3 x 4,12,9,3 x 4 = 12,small-sized_high-interference,small-sized,high-interference,10,CorrectRESP,a,0,0,0,0,0,5,5,5,,,,,,,,,,,,,,,145.8036547039992,None,146.30386922199978,None,148.30412778699974,None,149.05410797700097,None,149.3047160890019,None,149.3047160890019,None,d,0,0.7934446420003951,149.3047160890019,None,150.12030884100022,None,150.12030884100022,None,d,0.5857460320003156,150.12030884100022,None,150.7375382829996,None,,,,,,,,,,,,,sub-18,30/07/2001,1: Male,14/10/2023,001,1: right,2023_Oct_14_1706,[FINAL]_fmri_multiplication,2021.2.3,60.110774057757666
block1.xlsx,87.2,7.5,5,8 x 7,63,22,8 x 7 = 63,large-sized_high-interference,large-sized,high-interference,9,IncorrectRESP,d,0,0,0,0,0,6,6,6,,,,,,,,,,,,,,,152.83696559099917,None,153.33726004599885,None,155.33691674500005,None,156.08731213099963,None,156.33844473800127,None,156.33844473800127,None,a,0,1.2396870810007385,156.33844473800127,None,157.60309523899923,None,157.60309523899923,None,a,0.6230581579984573,157.60309523899923,None,158.25365787000192,None,,,,,,,,,,,,,sub-18,30/07/2001,1: Male,14/10/2023,001,1: right,2023_Oct_14_1706,[FINAL]_fmri_multiplication,2021.2.3,60.110774057757666
block1.xlsx,99.7,7.5,3,5 x 5,25,3,5 x 5 = 25,small-sized_low-interference,small-sized,low-interference,3,CorrectRESP,a,0,0,0,0,0,7,7,7,,,,,,,,,,,,,,,163.2526700720009,None,163.75350275399978,None,165.75373217000015,None,166.5036172910004,None,166.75351684999987,None,166.75351684999987,None,d,0,1.0806039779999992,166.75351684999987,None,167.85307906000162,None,167.85307906000162,None,d,0.9410867519982276,167.85307906000162,None,168.8197873370009,None,,,,,,,,,,,,,sub-18,30/07/2001,1: Male,14/10/2023,001,1: right,2023_Oct_14_1706,[FINAL]_fmri_multiplication,2021.2.3,60.110774057757666
block1.xlsx,110.2,7.5,6.5,6 x 4,28,10,6 x 4 = 28,small-sized_high-interference,small-sized,high-interference,12,IncorrectRESP,d,0,0,0,0,0,8,8,8,,,,,,,,,,,,,,,171.8199555350002,None,172.32047385700207,None,174.3203466140003,None,175.07030313900032,None,175.32002275700142,None,175.32002275700142,None,a,0,0.9300834569985454,175.32002275700142,None,176.26991918899876,None,176.26991918899876,None,d,0.49222641500091413,176.26991918899876,None,176.78666153599988,None,,,,,,,,,,,,,sub-18,30/07/2001,1: Male,14/10/2023,001,1: right,2023_Oct_14_1706,[FINAL]_fmri_multiplication,2021.2.3,60.110774057757666
block1.xlsx,124.2,7.5,5.7,5 x 8,40,21,5 x 8 = 40,large-sized_high-interference,large-sized,high-interference,9,CorrectRESP,a,0,0,0,0,0,9,9,9,,,,,,,,,,,,,,,183.28444943100112,None,183.80374791400027,None,185.8028195730003,None,186.55419992600218,None,186.80588426599934,None,186.80588426599934,None,d,0,0.6921986050001578,186.80588426599934,None,187.5202994329993,None,187.5202994329993,None,d,0.6578386949986452,187.5202994329993,None,188.20390749800208,None,,,,,,,,,,,,,sub-18,30/07/2001,1: Male,14/10/2023,001,1: right,2023_Oct_14_1706,[FINAL]_fmri_multiplication,2021.2.3,60.110774057757666
block1.xlsx,137.4,7.5,11.2,7 x 3,24,11,7 x 3 = 24,small-sized_high-interference,small-sized,high-interference,13,IncorrectRESP,d,0,0,0,0,0,10,10,10,,,,,,,,,,,,,,,193.9038559670007,None,194.40341809999882,None,196.40357568900072,None,197.15366733100018,None,197.40346867900007,None,197.40346867900007,None,a,0,0.7745782720012357,197.40346867900007,None,198.20295835599973,None,198.20295835599973,None,d,0.519079388,198.20295835599973,None,198.75356163700053,None,,,,,,,,,,,,,sub-18,30/07/2001,1: Male,14/10/2023,001,1: right,2023_Oct_14_1706,[FINAL]_fmri_multiplication,2021.2.3,60.110774057757666
block1.xlsx,156.1,7.5,6.9,5 x 6,30,14,5 x 6 = 30,large-sized_low-interference,large-sized,low-interference,6,CorrectRESP,a,0,0,0,0,0,11,11,11,,,,,,,,,,,,,,,209.95322420600132,None,210.45423098299943,None,212.45277027699922,None,213.20332177100136,None,213.4539692110011,None,213.4539692110011,None,d,0,0.7000523999995494,213.4539692110011,None,214.18707789499967,None,214.18707789499967,None,d,0.5990312380017713,214.18707789499967,None,214.8037412449994,None,,,,,,,,,,,,,sub-18,30/07/2001,1: Male,14/10/2023,001,1: right,2023_Oct_14_1706,[FINAL]_fmri_multiplication,2021.2.3,60.110774057757666
block1.xlsx,170.5,7.5,2.4,6 x 2,10,6,6 x 2 = 10,small-sized_low-interference,small-sized,low-interference,3,IncorrectRESP,d,0,0,0,0,0,12,12,12,,,,,,,,,,,,,,,221.70250222100003,None,222.20402485999875,None,224.20385446100045,None,224.95402334000028,None,225.2040559039997,None,225.2040559039997,None,a,0,0.7740590520006663,225.2040559039997,None,226.00323144600043,None,226.00323144600043,None,d,0.45492799199928413,226.00323144600043,None,226.4874630020022,None,,,,,,,,,,,,,sub-18,30/07/2001,1: Male,14/10/2023,001,1: right,2023_Oct_14_1706,[FINAL]_fmri_multiplication,2021.2.3,60.110774057757666
block1.xlsx,180.4,7.5,4.6,4 x 9,36,20,4 x 9 = 36,large-sized_high-interference,large-sized,high-interference,9,CorrectRESP,a,0,0,0,0,0,13,13,13,,,,,,,,,,,,,,,228.88703558600173,None,229.3864992050003,None,231.38715493999916,None,232.13713808900138,None,232.3909543310001,None,232.3909543310001,None,d,0,1.2591602350003086,232.3909543310001,None,233.66985865600145,None,233.66985865600145,None,a,0.764288326,233.66985865600145,None,234.4531202170001,None,,,,,,,,,,,,,sub-18,30/07/2001,1: Male,14/10/2023,001,1: right,2023_Oct_14_1706,[FINAL]_fmri_multiplication,2021.2.3,60.110774057757666
block1.xlsx,192.5,7.5,9,7 x 5,40,17,7 x 5 = 40,large-sized_low-interference,large-sized,low-interference,7,IncorrectRESP,d,0,0,0,0,0,14,14,14,,,,,,,,,,,,,,,239.0531468629997,None,239.55340929299928,None,241.55360111000118,None,242.30367612800183,None,242.5536126199986,None,242.5536126199986,None,a,0,0.7764148919995932,242.5536126199986,None,243.35319756999888,None,243.35319756999888,None,d,0.7448725799986278,243.35319756999888,None,244.12007959100083,None,,,,,,,,,,,,,sub-18,30/07/2001,1: Male,14/10/2023,001,1: right,2023_Oct_14_1706,[FINAL]_fmri_multiplication,2021.2.3,60.110774057757666
block1.xlsx,209,7.5,5.8,6 x 3,18,7,6 x 3 = 18,small-sized_high-interference,small-sized,high-interference,8,CorrectRESP,a,0,0,0,0,0,15,15,15,,,,,,,,,,,,,,,253.11798938799984,None,253.62195181800053,None,255.6368209989996,None,256.3874652810009,None,256.6376464470013,None,256.6376464470013,None,d,0,0.5964895779979997,256.6376464470013,None,257.25372969900127,None,257.25372969900127,None,d,0.34838198099896545,257.25372969900127,None,257.6203147970009,None,,,,,,,,,,,,,sub-18,30/07/2001,1: Male,14/10/2023,001,1: right,2023_Oct_14_1706,[FINAL]_fmri_multiplication,2021.2.3,60.110774057757666
block1.xlsx,222.3,7.5,2.9,7 x 6,48,23,7 x 6 = 48,large-sized_high-interference,large-sized,high-interference,22,IncorrectRESP,d,0,0,0,0,0,16,16,16,,,,,,,,,,,,,,,263.4203064100002,None,263.9203316730018,None,265.92056242000035,None,266.6708948180021,None,266.92030134800007,None,266.92030134800007,None,a,0,1.5377709360000154,266.92030134800007,None,268.4868631520003,None,268.4868631520003,None,a,0.6112352819982334,268.4868631520003,None,269.1198886880011,None,,,,,,,,,,,,,sub-18,30/07/2001,1: Male,14/10/2023,001,1: right,2023_Oct_14_1706,[FINAL]_fmri_multiplication,2021.2.3,60.110774057757666
block1.xlsx,232.7,7.5,6.9,9 x 5,45,15,9 x 5 = 45,large-sized_low-interference,large-sized,low-interference,6,CorrectRESP,a,0,0,0,0,0,17,17,17,,,,,,,,,,,,,,,272.0203199819989,None,272.5200930220017,None,274.52034531699974,None,275.2703179,None,275.52027677500155,None,275.52027677500155,None,d,0,0.7218527369986987,275.52027677500155,None,276.2702382230018,None,276.2702382230018,None,d,0.5078908700015745,276.2702382230018,None,276.8034399310018,None,,,,,,,,,,,,,sub-18,30/07/2001,1: Male,14/10/2023,001,1: right,2023_Oct_14_1706,[FINAL]_fmri_multiplication,2021.2.3,60.110774057757666
block1.xlsx,247.1,7.5,2.5,4 x 4,20,4,4 x 4 = 20,small-sized_low-interference,small-sized,low-interference,5,IncorrectRESP,d,0,0,0,0,0,18,18,18,,,,,,,,,,,,,,,283.7037133840022,None,284.20250578000196,None,286.20381508599894,None,286.95386954399874,None,287.20402823100085,None,287.20402823100085,None,a,0,0.7180229350014997,287.20402823100085,None,287.95419012099956,None,287.95419012099956,None,d,0.7358385020015703,287.95419012099956,None,288.7207882619987,None,,,,,,,,,,,,,sub-18,30/07/2001,1: Male,14/10/2023,001,1: right,2023_Oct_14_1706,[FINAL]_fmri_multiplication,2021.2.3,60.110774057757666
block1.xlsx,257.1,7.5,3.7,9 x 3,27,19,9 x 3 = 27,large-sized_high-interference,large-sized,high-interference,9,CorrectRESP,a,0,0,0,0,0,19,19,19,,,,,,,,,,,,,,,291.22062361999997,None,291.72124197800076,None,293.7207597630004,None,294.47079928600215,None,294.72171723800056,None,294.72171723800056,None,d,0,0.5923538409988396,294.72171723800056,None,295.33701203300006,None,295.33701203300006,None,d,0.5770874949994322,295.33701203300006,None,295.93695250499877,None,,,,,,,,,,,,,sub-18,30/07/2001,1: Male,14/10/2023,001,1: right,2023_Oct_14_1706,[FINAL]_fmri_multiplication,2021.2.3,60.110774057757666
block1.xlsx,268.3,7.5,3.5,4 x 5,20,8,4 x 5 = 20,small-sized_high-interference,small-sized,high-interference,8,CorrectRESP,a,0,0,0,0,0,20,20,20,,,,,,,,,,,,,,,299.6367225610011,None,300.1368406170004,None,302.13722421200146,None,302.8868877189998,None,303.13736016500116,None,303.13736016500116,None,d,0,0.7127349549991777,303.13736016500116,None,303.8698857890013,None,303.8698857890013,None,d,0.8121715199995378,303.8698857890013,None,304.7032095,None,,,,,,,,,,,,,sub-18,30/07/2001,1: Male,14/10/2023,001,1: right,2023_Oct_14_1706,[FINAL]_fmri_multiplication,2021.2.3,60.110774057757666
block1.xlsx,279.3,7.5,11.6,9 x 9,72,16,9 x 9 = 72,large-sized_low-interference,large-sized,low-interference,6,IncorrectRESP,d,0,0,0,0,0,21,21,21,,,,,,,,,,,,,,,308.20345638800063,None,308.7034204390002,None,310.7037295859991,None,311.4536324660003,None,311.7038202360018,None,311.7038202360018,None,a,0,0.9542357749996881,311.7038202360018,None,312.6868991119991,None,312.6868991119991,None,d,0.7312946800011559,312.6868991119991,None,313.43649689800077,None,,,,,,,,,,,,,sub-18,30/07/2001,1: Male,14/10/2023,001,1: right,2023_Oct_14_1706,[FINAL]_fmri_multiplication,2021.2.3,60.110774057757666
block1.xlsx,298.4,7.5,12.8,3 x 8,21,12,3 x 8 = 21,small-sized_high-interference,small-sized,high-interference,13,IncorrectRESP,d,0,0,0,0,0,22,22,22,,,,,,,,,,,,,,,325.0353800560006,None,325.5375011270007,None,327.53738990499915,None,328.2873692300018,None,328.5382478520005,None,328.5382478520005,None,a,0,0.8157696050002414,328.5382478520005,None,329.37076642399916,None,329.37076642399916,None,d,0.35128636700028437,329.37076642399916,None,329.7540420639998,None,,,,,,,,,,,,,sub-18,30/07/2001,1: Male,14/10/2023,001,1: right,2023_Oct_14_1706,[FINAL]_fmri_multiplication,2021.2.3,60.110774057757666
block1.xlsx,318.7,7.5,8.8,8 x 2,18,5,8 x 2 = 18,small-sized_low-interference,small-sized,low-interference,7,IncorrectRESP,d,0,0,0,0,0,23,23,23,,,,,,,,,,,,,,,342.55365000500024,None,343.05349482900056,None,345.05369989099927,None,345.80354503499984,None,346.05341377100194,None,346.05341377100194,None,a,0,1.0047315810006694,346.05341377100194,None,347.0870050880003,None,347.0870050880003,None,d,1.003029070001503,347.0870050880003,None,348.12040938800055,None,,,,,,,,,,,,,sub-18,30/07/2001,1: Male,14/10/2023,001,1: right,2023_Oct_14_1706,[FINAL]_fmri_multiplication,2021.2.3,60.110774057757666
block1.xlsx,,,,,,,,,,,,,,0,0,0,0,,,,,0,0,0,0,,,,,,,,,,,,,,,,,,,,,,,,,,,,,,,,,,,,,,356.92325849199915,None,356.92325849199915,None,,,,,,,,,sub-18,30/07/2001,1: Male,14/10/2023,001,1: right,2023_Oct_14_1706,[FINAL]_fmri_multiplication,2021.2.3,60.110774057757666
block1.xlsx,,,,,,,,,,,,,,0,0,0,0,,,,,1,0,1,0,,,,,,,,,,,,,,,,,,,,,,,,,,,,,,,,,,,,,,357.93940933400154,None,357.93940933400154,None,,,,,,,,,sub-18,30/07/2001,1: Male,14/10/2023,001,1: right,2023_Oct_14_1706,[FINAL]_fmri_multiplication,2021.2.3,60.110774057757666
block1.xlsx,,,,,,,,,,,,,,0,0,0,0,,,,,2,0,2,0,,,,,,,,,,,,,,,,,,,,,,,,,,,,,,,,,,,,,,358.92752380100137,None,358.92752380100137,None,,,,,,,,,sub-18,30/07/2001,1: Male,14/10/2023,001,1: right,2023_Oct_14_1706,[FINAL]_fmri_multiplication,2021.2.3,60.110774057757666
block1.xlsx,,,,,,,,,,,,,,0,0,0,0,,,,,3,0,3,0,,,,,,,,,,,,,,,,,,,,,,,,,,,,,,,,,,,,,,359.93878329699874,None,359.93878329699874,None,,,,,,,,,sub-18,30/07/2001,1: Male,14/10/2023,001,1: right,2023_Oct_14_1706,[FINAL]_fmri_multiplication,2021.2.3,60.110774057757666
block1.xlsx,,,,,,,,,,,,,,0,0,0,0,,,,,4,0,4,0,,,,,,,,,,,,,,,,,,,,,,,,,,,,,,,,,,,,,,360.93895246600005,None,360.93895246600005,None,,,,,,,,,sub-18,30/07/2001,1: Male,14/10/2023,001,1: right,2023_Oct_14_1706,[FINAL]_fmri_multiplication,2021.2.3,60.110774057757666
block1.xlsx,,,,,,,,,,,,,,0,0,0,0,,,,,5,0,5,0,,,,,,,,,,,,,,,,,,,,,,,,,,,,,,,,,,,,,,361.93938528500075,None,361.93938528500075,None,,,,,,,,,sub-18,30/07/2001,1: Male,14/10/2023,001,1: right,2023_Oct_14_1706,[FINAL]_fmri_multiplication,2021.2.3,60.110774057757666
block1.xlsx,,,,,,,,,,,,,,0,0,0,0,,,,,6,0,6,0,,,,,,,,,,,,,,,,,,,,,,,,,,,,,,,,,,,,,,362.9380801770021,None,362.9380801770021,None,,,,,,,,,sub-18,30/07/2001,1: Male,14/10/2023,001,1: right,2023_Oct_14_1706,[FINAL]_fmri_multiplication,2021.2.3,60.110774057757666
block1.xlsx,,,,,,,,,,,,,,0,0,0,0,,,,,7,0,7,0,,,,,,,,,,,,,,,,,,,,,,,,,,,,,,,,,,,,,,363.9390671539986,None,363.9390671539986,None,,,,,,,,,sub-18,30/07/2001,1: Male,14/10/2023,001,1: right,2023_Oct_14_1706,[FINAL]_fmri_multiplication,2021.2.3,60.110774057757666
block1.xlsx,,,,,,,,,,,,,,0,0,0,0,,,,,8,0,8,0,,,,,,,,,,,,,,,,,,,,,,,,,,,,,,,,,,,,,,364.93883456299955,None,364.93883456299955,None,,,,,,,,,sub-18,30/07/2001,1: Male,14/10/2023,001,1: right,2023_Oct_14_1706,[FINAL]_fmri_multiplication,2021.2.3,60.110774057757666
block1.xlsx,,,,,,,,,,,,,,0,0,0,0,,,,,9,0,9,0,,,,,,,,,,,,,,,,,,,,,,,,,,,,,,,,,,,,,,365.9389481690014,None,365.9389481690014,None,,,,,,,,,sub-18,30/07/2001,1: Male,14/10/2023,001,1: right,2023_Oct_14_1706,[FINAL]_fmri_multiplication,2021.2.3,60.110774057757666
block1.xlsx,,,,,,,,,,,,,,0,0,0,0,,,,,10,0,10,0,,,,,,,,,,,,,,,,,,,,,,,,,,,,,,,,,,,,,,366.93862071699914,None,366.93862071699914,None,,,,,,,,,sub-18,30/07/2001,1: Male,14/10/2023,001,1: right,2023_Oct_14_1706,[FINAL]_fmri_multiplication,2021.2.3,60.110774057757666
block1.xlsx,,,,,,,,,,,,,,0,0,0,0,,,,,11,0,11,0,,,,,,,,,,,,,,,,,,,,,,,,,,,,,,,,,,,,,,367.93691522299923,None,367.93691522299923,None,,,,,,,,,sub-18,30/07/2001,1: Male,14/10/2023,001,1: right,2023_Oct_14_1706,[FINAL]_fmri_multiplication,2021.2.3,60.110774057757666
block1.xlsx,,,,,,,,,,,,,,0,0,0,0,,,,,12,0,12,0,,,,,,,,,,,,,,,,,,,,,,,,,,,,,,,,,,,,,,368.9385276889989,None,368.9385276889989,None,,,,,,,,,sub-18,30/07/2001,1: Male,14/10/2023,001,1: right,2023_Oct_14_1706,[FINAL]_fmri_multiplication,2021.2.3,60.110774057757666
block1.xlsx,,,,,,,,,,,,,,0,0,0,0,,,,,13,0,13,0,,,,,,,,,,,,,,,,,,,,,,,,,,,,,,,,,,,,,,369.93676347200017,None,369.93676347200017,None,,,,,,,,,sub-18,30/07/2001,1: Male,14/10/2023,001,1: right,2023_Oct_14_1706,[FINAL]_fmri_multiplication,2021.2.3,60.110774057757666
block1.xlsx,,,,,,,,,,,,,,0,0,0,0,,,,,14,0,14,0,,,,,,,,,,,,,,,,,,,,,,,,,,,,,,,,,,,,,,370.9368094870006,None,370.9368094870006,None,,,,,,,,,sub-18,30/07/2001,1: Male,14/10/2023,001,1: right,2023_Oct_14_1706,[FINAL]_fmri_multiplication,2021.2.3,60.110774057757666
block1.xlsx,,,,,,,,,,,,,,0,0,0,0,,,,,15,0,15,0,,,,,,,,,,,,,,,,,,,,,,,,,,,,,,,,,,,,,,371.93696883600205,None,371.93696883600205,None,,,,,,,,,sub-18,30/07/2001,1: Male,14/10/2023,001,1: right,2023_Oct_14_1706,[FINAL]_fmri_multiplication,2021.2.3,60.110774057757666
block1.xlsx,,,,,,,,,,,,,,0,0,0,0,,,,,16,0,16,0,,,,,,,,,,,,,,,,,,,,,,,,,,,,,,,,,,,,,,372.9371277680002,None,372.9371277680002,None,,,,,,,,,sub-18,30/07/2001,1: Male,14/10/2023,001,1: right,2023_Oct_14_1706,[FINAL]_fmri_multiplication,2021.2.3,60.110774057757666
block1.xlsx,,,,,,,,,,,,,,0,0,0,0,,,,,17,0,17,0,,,,,,,,,,,,,,,,,,,,,,,,,,,,,,,,,,,,,,373.9377718430005,None,373.9377718430005,None,,,,,,,,,sub-18,30/07/2001,1: Male,14/10/2023,001,1: right,2023_Oct_14_1706,[FINAL]_fmri_multiplication,2021.2.3,60.110774057757666
block1.xlsx,,,,,,,,,,,,,,0,0,0,0,,,,,18,0,18,0,,,,,,,,,,,,,,,,,,,,,,,,,,,,,,,,,,,,,,374.9374793700008,None,374.9374793700008,None,,,,,,,,,sub-18,30/07/2001,1: Male,14/10/2023,001,1: right,2023_Oct_14_1706,[FINAL]_fmri_multiplication,2021.2.3,60.110774057757666
block1.xlsx,,,,,,,,,,,,,,0,0,0,0,,,,,19,0,19,0,,,,,,,,,,,,,,,,,,,,,,,,,,,,,,,,,,,,,,375.9390666700019,None,375.9390666700019,None,,,,,,,,,sub-18,30/07/2001,1: Male,14/10/2023,001,1: right,2023_Oct_14_1706,[FINAL]_fmri_multiplication,2021.2.3,60.110774057757666
block1.xlsx,,,,,,,,,,,,,,0,0,0,0,,,,,20,0,20,0,,,,,,,,,,,,,,,,,,,,,,,,,,,,,,,,,,,,,,376.9367707900019,None,376.9367707900019,None,,,,,,,,,sub-18,30/07/2001,1: Male,14/10/2023,001,1: right,2023_Oct_14_1706,[FINAL]_fmri_multiplication,2021.2.3,60.110774057757666
block1.xlsx,,,,,,,,,,,,,,0,0,0,0,,,,,21,0,21,0,,,,,,,,,,,,,,,,,,,,,,,,,,,,,,,,,,,,,,377.93693960900055,None,377.93693960900055,None,,,,,,,,,sub-18,30/07/2001,1: Male,14/10/2023,001,1: right,2023_Oct_14_1706,[FINAL]_fmri_multiplication,2021.2.3,60.110774057757666
block1.xlsx,,,,,,,,,,,,,,0,0,0,0,,,,,22,0,22,0,,,,,,,,,,,,,,,,,,,,,,,,,,,,,,,,,,,,,,378.9373584950008,None,378.9373584950008,None,,,,,,,,,sub-18,30/07/2001,1: Male,14/10/2023,001,1: right,2023_Oct_14_1706,[FINAL]_fmri_multiplication,2021.2.3,60.110774057757666
block1.xlsx,,,,,,,,,,,,,,0,0,0,0,,,,,23,0,23,0,,,,,,,,,,,,,,,,,,,,,,,,,,,,,,,,,,,,,,379.9370511900015,None,379.9370511900015,None,,,,,,,,,sub-18,30/07/2001,1: Male,14/10/2023,001,1: right,2023_Oct_14_1706,[FINAL]_fmri_multiplication,2021.2.3,60.110774057757666
block1.xlsx,,,,,,,,,,,,,,0,0,0,0,,,,,24,0,24,0,,,,,,,,,,,,,,,,,,,,,,,,,,,,,,,,,,,,,,380.93715538700053,None,380.93715538700053,None,,,,,,,,,sub-18,30/07/2001,1: Male,14/10/2023,001,1: right,2023_Oct_14_1706,[FINAL]_fmri_multiplication,2021.2.3,60.110774057757666
block1.xlsx,,,,,,,,,,,,,,0,0,0,0,,,,,25,0,25,0,,,,,,,,,,,,,,,,,,,,,,,,,,,,,,,,,,,,,,381.9369376870018,None,381.9369376870018,None,,,,,,,,,sub-18,30/07/2001,1: Male,14/10/2023,001,1: right,2023_Oct_14_1706,[FINAL]_fmri_multiplication,2021.2.3,60.110774057757666
block1.xlsx,,,,,,,,,,,,,,0,0,0,0,,,,,26,0,26,0,,,,,,,,,,,,,,,,,,,,,,,,,,,,,,,,,,,,,,382.93683384700125,None,382.93683384700125,None,,,,,,,,,sub-18,30/07/2001,1: Male,14/10/2023,001,1: right,2023_Oct_14_1706,[FINAL]_fmri_multiplication,2021.2.3,60.110774057757666
block1.xlsx,,,,,,,,,,,,,,0,0,0,0,,,,,27,0,27,0,,,,,,,,,,,,,,,,,,,,,,,,,,,,,,,,,,,,,,383.93678394699964,None,383.93678394699964,None,,,,,,,,,sub-18,30/07/2001,1: Male,14/10/2023,001,1: right,2023_Oct_14_1706,[FINAL]_fmri_multiplication,2021.2.3,60.110774057757666
block1.xlsx,,,,,,,,,,,,,,0,0,0,0,,,,,28,0,28,0,,,,,,,,,,,,,,,,,,,,,,,,,,,,,,,,,,,,,,384.9373105570012,None,384.9373105570012,None,,,,,,,,,sub-18,30/07/2001,1: Male,14/10/2023,001,1: right,2023_Oct_14_1706,[FINAL]_fmri_multiplication,2021.2.3,60.110774057757666
block1.xlsx,,,,,,,,,,,,,,0,0,0,0,,,,,29,0,29,0,,,,,,,,,,,,,,,,,,,,,,,,,,,,,,,,,,,,,,385.93676417700044,None,385.93676417700044,None,,,,,,,,,sub-18,30/07/2001,1: Male,14/10/2023,001,1: right,2023_Oct_14_1706,[FINAL]_fmri_multiplication,2021.2.3,60.110774057757666
block1.xlsx,,,,,,,,,,,,,,0,0,0,0,,,,,,,,,,,,,,,,,,,,,,,,,,,,,,,,,,,,,,,,,,,,,,,,,,,,,,,,,,sub-18,30/07/2001,1: Male,14/10/2023,001,1: right,2023_Oct_14_1706,[FINAL]_fmri_multiplication,2021.2.3,60.110774057757666
block2.xlsx,10,7.5,3.4,3 x 4,15,9,3 x 4 = 15,small-sized_high-interference,small-sized,high-interference,10,IncorrectRESP,d,0,1,1,1,0,0,0,0,,,,,,,,,,,,,386.93774429100085,None,396.96381456200106,None,397.43734453399884,None,399.43706752399885,None,400.1874685059993,None,400.43725135600107,None,400.43725135600107,None,a,0,0.7328606840019347,400.43725135600107,None,401.1873758280017,None,401.1873758280017,None,d,0.5987594940015697,401.1873758280017,None,401.8033459729995,None,,,,,,,,,,,,,sub-18,30/07/2001,1: Male,14/10/2023,001,1: right,2023_Oct_14_1706,[FINAL]_fmri_multiplication,2021.2.3,60.110774057757666
block2.xlsx,20.9,7.5,7,9 x 5,40,15,9 x 5 = 40,large-sized_low-interference,large-sized,low-interference,6,IncorrectRESP,d,0,1,1,1,0,1,1,1,,,,,,,,,,,,,,,405.2032652449998,None,405.70387067200136,None,407.7038584010006,None,408.4537706890005,None,408.70369612799914,None,408.70369612799914,None,a,0,0.698407957,408.70369612799914,None,409.4199314590005,None,409.4199314590005,None,d,0.33410111000193865,409.4199314590005,None,409.7865668990016,None,,,,,,,,,,,,,sub-18,30/07/2001,1: Male,14/10/2023,001,1: right,2023_Oct_14_1706,[FINAL]_fmri_multiplication,2021.2.3,60.110774057757666
block2.xlsx,35.4,7.5,6.6,6 x 4,24,10,6 x 4 = 24,small-sized_high-interference,small-sized,high-interference,12,CorrectRESP,a,0,1,1,1,0,2,2,2,,,,,,,,,,,,,,,416.78656397600207,None,417.2867567940011,None,419.2869284039989,None,420.0370328280005,None,420.2874604,None,420.2874604,None,d,0,0.6505903600009333,420.2874604,None,420.97036702400146,None,420.97036702400146,None,d,0.7356846379989292,420.97036702400146,None,421.7365784909998,None,,,,,,,,,,,,,sub-18,30/07/2001,1: Male,14/10/2023,001,1: right,2023_Oct_14_1706,[FINAL]_fmri_multiplication,2021.2.3,60.110774057757666
block2.xlsx,49.5,7.5,12,7 x 6,42,23,7 x 6 = 42,large-sized_high-interference,large-sized,high-interference,22,CorrectRESP,a,0,1,1,1,0,3,3,3,,,,,,,,,,,,,,,428.3372399430009,None,428.8404081640001,None,430.85434567099946,None,431.60410408700045,None,431.8538512100022,None,431.8538512100022,None,d,0,0.9322752110019792,431.8538512100022,None,432.8034600030005,None,432.8034600030005,None,d,1.1106379790035135,432.8034600030005,None,433.93689695500143,None,,,,,,,,,,,,,sub-18,30/07/2001,1: Male,14/10/2023,001,1: right,2023_Oct_14_1706,[FINAL]_fmri_multiplication,2021.2.3,60.110774057757666
block2.xlsx,69,7.5,4.9,6 x 2,12,6,6 x 2 = 12,small-sized_low-interference,small-sized,low-interference,3,CorrectRESP,a,0,1,1,1,0,4,4,4,,,,,,,,,,,,,,,445.9365086860016,None,446.43694085899915,None,448.43707522600016,None,449.1868252940003,None,449.43777374099955,None,449.43777374099955,None,d,0,1.2922628699998313,449.43777374099955,None,450.7532196249995,None,450.7532196249995,None,d,1.240931582000485,450.7532196249995,None,452.02007964099903,None,,,,,,,,,,,,,sub-18,30/07/2001,1: Male,14/10/2023,001,1: right,2023_Oct_14_1706,[FINAL]_fmri_multiplication,2021.2.3,60.110774057757666
block2.xlsx,81.4,7.5,6.6,4 x 9,32,20,4 x 9 = 32,large-sized_high-interference,large-sized,high-interference,9,IncorrectRESP,d,0,1,1,1,0,5,5,5,,,,,,,,,,,,,,,456.9203127200017,None,457.4202696700013,None,459.4203825020013,None,460.170418,None,460.4199763450015,None,460.4199763450015,None,a,0,1.3981312649993924,460.4199763450015,None,461.8367292860021,None,461.8367292860021,None,a,1.0214048230009212,461.8367292860021,None,462.88719147400116,None,,,,,,,,,,,,,sub-18,30/07/2001,1: Male,14/10/2023,001,1: right,2023_Oct_14_1706,[FINAL]_fmri_multiplication,2021.2.3,60.110774057757666
block2.xlsx,95.5,7.5,2.6,5 x 5,30,3,5 x 5 = 30,small-sized_low-interference,small-sized,low-interference,3,IncorrectRESP,d,0,1,1,1,0,6,6,6,,,,,,,,,,,,,,,469.48742692700034,None,469.98739430099886,None,471.9871462910014,None,472.7375288430012,None,472.98712700800024,None,472.98712700800024,None,a,0,0.9830556710003293,472.98712700800024,None,473.9869913319999,None,473.9869913319999,None,d,0.8871583079999255,473.9869913319999,None,474.9034196270004,None,,,,,,,,,,,,,sub-18,30/07/2001,1: Male,14/10/2023,001,1: right,2023_Oct_14_1706,[FINAL]_fmri_multiplication,2021.2.3,60.110774057757666
block2.xlsx,105.6,7.5,3.7,8 x 4,32,24,8 x 4 = 32,large-sized_high-interference,large-sized,high-interference,25,CorrectRESP,a,0,1,1,1,0,7,7,7,,,,,,,,,,,,,,,477.5037711779987,None,478.0034031260002,None,480.0035002229997,None,480.7537125029994,None,481.00395340600153,None,481.00395340600153,None,d,0,0.6860711680019449,481.00395340600153,None,481.7204091249987,None,481.7204091249987,None,d,0.7777046549999795,481.7204091249987,None,482.51912109600016,None,,,,,,,,,,,,,sub-18,30/07/2001,1: Male,14/10/2023,001,1: right,2023_Oct_14_1706,[FINAL]_fmri_multiplication,2021.2.3,60.110774057757666
block2.xlsx,116.8,7.5,3.1,2 x 9,16,2,2 x 9 = 16,small-sized_low-interference,small-sized,low-interference,7,IncorrectRESP,d,0,1,1,1,0,8,8,8,,,,,,,,,,,,,,,486.2203067920018,None,486.7202896150011,None,488.72030476000145,None,489.4703630420008,None,489.73677943200164,None,489.73677943200164,None,a,0,1.0894237370011979,489.73677943200164,None,490.85361799900056,None,490.85361799900056,None,d,0.7485403259997838,490.85361799900056,None,491.61988133200066,None,,,,,,,,,,,,,sub-18,30/07/2001,1: Male,14/10/2023,001,1: right,2023_Oct_14_1706,[FINAL]_fmri_multiplication,2021.2.3,60.110774057757666
block2.xlsx,127.4,7.5,12.2,5 x 8,45,21,5 x 8 = 45,large-sized_high-interference,large-sized,high-interference,9,IncorrectRESP,d,0,1,1,1,0,9,9,9,,,,,,,,,,,,,,,494.7199227759993,None,495.2203391490002,None,497.2205879009998,None,497.97040515200206,None,498.2215840809986,None,498.2215840809986,None,a,0,0.7805654399999185,498.2215840809986,None,499.02026953099994,None,499.02026953099994,None,d,0.5978016580011172,499.02026953099994,None,499.6342649670005,None,,,,,,,,,,,,,sub-18,30/07/2001,1: Male,14/10/2023,001,1: right,2023_Oct_14_1706,[FINAL]_fmri_multiplication,2021.2.3,60.110774057757666
block2.xlsx,147.1,7.5,13.3,6 x 6,30,13,6 x 6 = 30,large-sized_low-interference,large-sized,low-interference,4,IncorrectRESP,d,0,1,1,1,0,10,10,10,,,,,,,,,,,,,,,511.83692682499895,None,512.3369905319996,None,514.3370913030012,None,515.0869018830017,None,515.3368086190021,None,515.3368086190021,None,a,0,0.7612788569967961,515.3368086190021,None,516.1199068970018,None,516.1199068970018,None,d,0.5781710060000478,516.1199068970018,None,516.7199245129996,None,,,,,,,,,,,,,sub-18,30/07/2001,1: Male,14/10/2023,001,1: right,2023_Oct_14_1706,[FINAL]_fmri_multiplication,2021.2.3,60.110774057757666
block2.xlsx,167.9,7.5,2.8,7 x 3,21,11,7 x 3 = 21,small-sized_high-interference,small-sized,high-interference,13,CorrectRESP,a,0,1,1,1,0,11,11,11,,,,,,,,,,,,,,,530.0203746,None,530.5205101710017,None,532.5205229210005,None,533.2705789310021,None,533.5208399910007,None,533.5208399910007,None,d,0,1.5452237630015588,533.5208399910007,None,535.0871006849993,None,535.0871006849993,None,d,1.0189267310015566,535.0871006849993,None,536.1370258870011,None,,,,,,,,,,,,,sub-18,30/07/2001,1: Male,14/10/2023,001,1: right,2023_Oct_14_1706,[FINAL]_fmri_multiplication,2021.2.3,60.110774057757666
block2.xlsx,178.2,7.5,3.4,8 x 7,56,22,8 x 7 = 56,large-sized_high-interference,large-sized,high-interference,9,CorrectRESP,a,0,1,1,1,0,12,12,12,,,,,,,,,,,,,,,538.9373950369991,None,539.4376997569998,None,541.4369666300008,None,542.1871485660013,None,542.4375887819988,None,542.4375887819988,None,d,0,1.8205414240001119,542.4375887819988,None,544.2865518069993,None,544.2865518069993,None,a,0.30758033099846216,544.2865518069993,None,544.6205959,None,,,,,,,,,,,,,sub-18,30/07/2001,1: Male,14/10/2023,001,1: right,2023_Oct_14_1706,[FINAL]_fmri_multiplication,2021.2.3,60.110774057757666
block2.xlsx,189.1,7.5,3.9,3 x 8,24,12,3 x 8 = 24,small-sized_high-interference,small-sized,high-interference,13,CorrectRESP,a,0,1,1,1,0,13,13,13,,,,,,,,,,,,,,,548.0201045030008,None,548.5205015300016,None,550.5203501840006,None,551.2704435689993,None,551.5203328419993,None,551.5203328419993,None,d,0,0.7537016220012447,551.5203328419993,None,552.3034076840013,None,552.3034076840013,None,d,0.48274984000090626,552.3034076840013,None,552.8036482989992,None,,,,,,,,,,,,,sub-18,30/07/2001,1: Male,14/10/2023,001,1: right,2023_Oct_14_1706,[FINAL]_fmri_multiplication,2021.2.3,60.110774057757666
block2.xlsx,200.5,7.5,2,5 x 6,36,14,5 x 6 = 36,large-sized_low-interference,large-sized,low-interference,6,IncorrectRESP,d,0,1,1,1,0,14,14,14,,,,,,,,,,,,,,,556.7027702300002,None,557.2030868250004,None,559.2031614949992,None,559.9534332,None,560.2039777,None,560.2039777,None,d,1,1.566042849997757,560.2039777,None,561.8032142730008,None,561.8032142730008,None,a,0.6469229409995023,561.8032142730008,None,562.4699354910008,None,,,,,,,,,,,,,sub-18,30/07/2001,1: Male,14/10/2023,001,1: right,2023_Oct_14_1706,[FINAL]_fmri_multiplication,2021.2.3,60.110774057757666
block2.xlsx,210,7.5,8.2,7 x 2,12,1,7 x 2 = 12,small-sized_low-interference,small-sized,low-interference,4,IncorrectRESP,d,0,1,1,1,0,15,15,15,,,,,,,,,,,,,,,564.4704050030014,None,564.9700950830011,None,566.9704773349986,None,567.7205133120005,None,567.9704130440005,None,567.9704130440005,None,a,0,1.2637835399982578,567.9704130440005,None,569.2535191880015,None,569.2535191880015,None,d,0.8446116279992566,569.2535191880015,None,570.1172358010008,None,,,,,,,,,,,,,sub-18,30/07/2001,1: Male,14/10/2023,001,1: right,2023_Oct_14_1706,[FINAL]_fmri_multiplication,2021.2.3,60.110774057757666
block2.xlsx,225.7,7.5,6.5,9 x 9,81,16,9 x 9 = 81,large-sized_low-interference,large-sized,low-interference,6,CorrectRESP,a,0,1,1,1,0,16,16,16,,,,,,,,,,,,,,,578.3207331189988,None,578.8201621760018,None,580.8207313610001,None,581.5703186909996,None,581.8201255950007,None,581.8201255950007,None,d,0,0.789938792,581.8201255950007,None,582.6366972,None,582.6366972,None,d,0.4533309510006802,582.6366972,None,583.120501,None,,,,,,,,,,,,,sub-18,30/07/2001,1: Male,14/10/2023,001,1: right,2023_Oct_14_1706,[FINAL]_fmri_multiplication,2021.2.3,60.110774057757666
block2.xlsx,239.7,7.5,6.2,4 x 5,16,8,4 x 5 = 16,small-sized_high-interference,small-sized,high-interference,8,IncorrectRESP,d,0,1,1,1,0,17,17,17,,,,,,,,,,,,,,,589.6203971399991,None,590.1203232,None,592.1205567659999,None,592.8702740020017,None,593.1206633,None,593.1206633,None,a,0,1.4414358210015052,593.1206633,None,594.5865345099992,None,594.5865345099992,None,d,1.0715973209989897,594.5865345099992,None,595.6869515899998,None,,,,,,,,,,,,,sub-18,30/07/2001,1: Male,14/10/2023,001,1: right,2023_Oct_14_1706,[FINAL]_fmri_multiplication,2021.2.3,60.110774057757666
block2.xlsx,253.4,7.5,11.8,8 x 2,16,5,8 x 2 = 16,small-sized_low-interference,small-sized,low-interference,7,CorrectRESP,a,0,1,1,1,0,18,18,18,,,,,,,,,,,,,,,601.8871445020013,None,602.3863255370015,None,604.3870368800017,None,605.1340502,None,605.3790081260013,None,605.3790081260013,None,d,0,1.4631322719978925,605.3790081260013,None,606.8708547690003,None,606.8708547690003,None,d,0.7632700390022364,606.8708547690003,None,607.6537125110008,None,,,,,,,,,,,,,sub-18,30/07/2001,1: Male,14/10/2023,001,1: right,2023_Oct_14_1706,[FINAL]_fmri_multiplication,2021.2.3,60.110774057757666
block2.xlsx,272.7,7.5,3.7,7 x 5,35,17,7 x 5 = 35,large-sized_low-interference,large-sized,low-interference,7,CorrectRESP,a,0,1,1,1,0,19,19,19,,,,,,,,,,,,,,,619.4536631529991,None,619.9540213469991,None,621.9536384,None,622.7037389,None,622.9535546070001,None,622.9535546070001,None,a,1,1.3844956960019772,622.9535546070001,None,624.3702578449993,None,624.3702578449993,None,a,0.5037763910004287,624.3702578449993,None,624.9037465760011,None,,,,,,,,,,,,,sub-18,30/07/2001,1: Male,14/10/2023,001,1: right,2023_Oct_14_1706,[FINAL]_fmri_multiplication,2021.2.3,60.110774057757666
block2.xlsx,283.9,7.5,6,6 x 3,15,7,6 x 3 = 15,small-sized_high-interference,small-sized,high-interference,8,IncorrectRESP,d,0,1,1,1,0,20,20,20,,,,,,,,,,,,,,,628.6036603819994,None,629.1035372840015,None,631.1036466859987,None,631.8535356989996,None,632.1044893719991,None,632.1044893719991,None,a,0,0.8576472659988212,632.1044893719991,None,632.9865339659991,None,632.9865339659991,None,d,0.7995296999979473,632.9865339659991,None,633.8032123679986,None,,,,,,,,,,,,,sub-18,30/07/2001,1: Male,14/10/2023,001,1: right,2023_Oct_14_1706,[FINAL]_fmri_multiplication,2021.2.3,60.110774057757666
block2.xlsx,297.4,7.5,6.1,9 x 3,24,19,9 x 3 = 24,large-sized_high-interference,large-sized,high-interference,9,IncorrectRESP,d,0,1,1,1,0,21,21,21,,,,,,,,,,,,,,,639.8028963979996,None,640.3081724680014,None,642.3209679430001,None,643.0708311650014,None,643.3219679249996,None,643.3219679249996,None,a,0,0.8401209699986794,643.3219679249996,None,644.1868543130004,None,644.1868543130004,None,d,0.4152895080005692,644.1868543130004,None,644.6203315249986,None,,,,,,,,,,,,,sub-18,30/07/2001,1: Male,14/10/2023,001,1: right,2023_Oct_14_1706,[FINAL]_fmri_multiplication,2021.2.3,60.110774057757666
block2.xlsx,311,7.5,5.1,4 x 4,16,4,4 x 4 = 16,small-sized_low-interference,small-sized,low-interference,5,CorrectRESP,a,0,1,1,1,0,22,22,22,,,,,,,,,,,,,,,650.7206721600014,None,651.2205064049995,None,653.2202236929988,None,653.9706120400006,None,654.2202740860012,None,654.2202740860012,None,d,0,0.8138927679974586,654.2202740860012,None,655.0532191419989,None,655.0532191419989,None,d,0.40485778999936883,655.0532191419989,None,655.4870735840013,None,,,,,,,,,,,,,sub-18,30/07/2001,1: Male,14/10/2023,001,1: right,2023_Oct_14_1706,[FINAL]_fmri_multiplication,2021.2.3,60.110774057757666
block2.xlsx,323.6,7.5,3.9,7 x 7,49,18,7 x 7 = 49,large-sized_low-interference,large-sized,low-interference,7,CorrectRESP,a,0,1,1,1,0,23,23,23,,,,,,,,,,,,,,,660.5868603730014,None,661.0868941760018,None,663.0869497310014,None,663.8365135000022,None,664.0871693910012,None,664.0871693910012,None,d,0,0.6990592990005098,664.0871693910012,None,664.8033087090007,None,664.8033087090007,None,d,0.3507421879985486,664.8033087090007,None,665.1866310789992,None,,,,,,,,,,,,,sub-18,30/07/2001,1: Male,14/10/2023,001,1: right,2023_Oct_14_1706,[FINAL]_fmri_multiplication,2021.2.3,60.110774057757666
block2.xlsx,,,,,,,,,,,,,,0,1,1,1,,,,,0,0,0,0,,,,,,,,,,,,,,,,,,,,,,,,,,,,,,,,,,,,,,669.0895807250017,None,669.0895807250017,None,,,,,,,,,sub-18,30/07/2001,1: Male,14/10/2023,001,1: right,2023_Oct_14_1706,[FINAL]_fmri_multiplication,2021.2.3,60.110774057757666
block2.xlsx,,,,,,,,,,,,,,0,1,1,1,,,,,1,0,1,0,,,,,,,,,,,,,,,,,,,,,,,,,,,,,,,,,,,,,,670.1062330509994,None,670.1062330509994,None,,,,,,,,,sub-18,30/07/2001,1: Male,14/10/2023,001,1: right,2023_Oct_14_1706,[FINAL]_fmri_multiplication,2021.2.3,60.110774057757666
block2.xlsx,,,,,,,,,,,,,,0,1,1,1,,,,,2,0,2,0,,,,,,,,,,,,,,,,,,,,,,,,,,,,,,,,,,,,,,671.1037737750012,None,671.1037737750012,None,,,,,,,,,sub-18,30/07/2001,1: Male,14/10/2023,001,1: right,2023_Oct_14_1706,[FINAL]_fmri_multiplication,2021.2.3,60.110774057757666
block2.xlsx,,,,,,,,,,,,,,0,1,1,1,,,,,3,0,3,0,,,,,,,,,,,,,,,,,,,,,,,,,,,,,,,,,,,,,,672.1061536999987,None,672.1061536999987,None,,,,,,,,,sub-18,30/07/2001,1: Male,14/10/2023,001,1: right,2023_Oct_14_1706,[FINAL]_fmri_multiplication,2021.2.3,60.110774057757666
block2.xlsx,,,,,,,,,,,,,,0,1,1,1,,,,,4,0,4,0,,,,,,,,,,,,,,,,,,,,,,,,,,,,,,,,,,,,,,673.1043189949996,None,673.1043189949996,None,,,,,,,,,sub-18,30/07/2001,1: Male,14/10/2023,001,1: right,2023_Oct_14_1706,[FINAL]_fmri_multiplication,2021.2.3,60.110774057757666
block2.xlsx,,,,,,,,,,,,,,0,1,1,1,,,,,5,0,5,0,,,,,,,,,,,,,,,,,,,,,,,,,,,,,,,,,,,,,,674.1038559820008,None,674.1038559820008,None,,,,,,,,,sub-18,30/07/2001,1: Male,14/10/2023,001,1: right,2023_Oct_14_1706,[FINAL]_fmri_multiplication,2021.2.3,60.110774057757666
block2.xlsx,,,,,,,,,,,,,,0,1,1,1,,,,,6,0,6,0,,,,,,,,,,,,,,,,,,,,,,,,,,,,,,,,,,,,,,675.0945675479998,None,675.0945675479998,None,,,,,,,,,sub-18,30/07/2001,1: Male,14/10/2023,001,1: right,2023_Oct_14_1706,[FINAL]_fmri_multiplication,2021.2.3,60.110774057757666
block2.xlsx,,,,,,,,,,,,,,0,1,1,1,,,,,7,0,7,0,,,,,,,,,,,,,,,,,,,,,,,,,,,,,,,,,,,,,,676.1044276440007,None,676.1044276440007,None,,,,,,,,,sub-18,30/07/2001,1: Male,14/10/2023,001,1: right,2023_Oct_14_1706,[FINAL]_fmri_multiplication,2021.2.3,60.110774057757666
block2.xlsx,,,,,,,,,,,,,,0,1,1,1,,,,,8,0,8,0,,,,,,,,,,,,,,,,,,,,,,,,,,,,,,,,,,,,,,677.1049516,None,677.1049516,None,,,,,,,,,sub-18,30/07/2001,1: Male,14/10/2023,001,1: right,2023_Oct_14_1706,[FINAL]_fmri_multiplication,2021.2.3,60.110774057757666
block2.xlsx,,,,,,,,,,,,,,0,1,1,1,,,,,9,0,9,0,,,,,,,,,,,,,,,,,,,,,,,,,,,,,,,,,,,,,,678.1043006340005,None,678.1043006340005,None,,,,,,,,,sub-18,30/07/2001,1: Male,14/10/2023,001,1: right,2023_Oct_14_1706,[FINAL]_fmri_multiplication,2021.2.3,60.110774057757666
block2.xlsx,,,,,,,,,,,,,,0,1,1,1,,,,,10,0,10,0,,,,,,,,,,,,,,,,,,,,,,,,,,,,,,,,,,,,,,679.1042937769998,None,679.1042937769998,None,,,,,,,,,sub-18,30/07/2001,1: Male,14/10/2023,001,1: right,2023_Oct_14_1706,[FINAL]_fmri_multiplication,2021.2.3,60.110774057757666
block2.xlsx,,,,,,,,,,,,,,0,1,1,1,,,,,11,0,11,0,,,,,,,,,,,,,,,,,,,,,,,,,,,,,,,,,,,,,,680.1048033770021,None,680.1048033770021,None,,,,,,,,,sub-18,30/07/2001,1: Male,14/10/2023,001,1: right,2023_Oct_14_1706,[FINAL]_fmri_multiplication,2021.2.3,60.110774057757666
block2.xlsx,,,,,,,,,,,,,,0,1,1,1,,,,,12,0,12,0,,,,,,,,,,,,,,,,,,,,,,,,,,,,,,,,,,,,,,681.1045070370019,None,681.1045070370019,None,,,,,,,,,sub-18,30/07/2001,1: Male,14/10/2023,001,1: right,2023_Oct_14_1706,[FINAL]_fmri_multiplication,2021.2.3,60.110774057757666
block2.xlsx,,,,,,,,,,,,,,0,1,1,1,,,,,13,0,13,0,,,,,,,,,,,,,,,,,,,,,,,,,,,,,,,,,,,,,,682.104759,None,682.104759,None,,,,,,,,,sub-18,30/07/2001,1: Male,14/10/2023,001,1: right,2023_Oct_14_1706,[FINAL]_fmri_multiplication,2021.2.3,60.110774057757666
block2.xlsx,,,,,,,,,,,,,,0,1,1,1,,,,,14,0,14,0,,,,,,,,,,,,,,,,,,,,,,,,,,,,,,,,,,,,,,683.1043884690007,None,683.1043884690007,None,,,,,,,,,sub-18,30/07/2001,1: Male,14/10/2023,001,1: right,2023_Oct_14_1706,[FINAL]_fmri_multiplication,2021.2.3,60.110774057757666
block2.xlsx,,,,,,,,,,,,,,0,1,1,1,,,,,15,0,15,0,,,,,,,,,,,,,,,,,,,,,,,,,,,,,,,,,,,,,,684.1043569670001,None,684.1043569670001,None,,,,,,,,,sub-18,30/07/2001,1: Male,14/10/2023,001,1: right,2023_Oct_14_1706,[FINAL]_fmri_multiplication,2021.2.3,60.110774057757666
block2.xlsx,,,,,,,,,,,,,,0,1,1,1,,,,,16,0,16,0,,,,,,,,,,,,,,,,,,,,,,,,,,,,,,,,,,,,,,685.1036218490008,None,685.1036218490008,None,,,,,,,,,sub-18,30/07/2001,1: Male,14/10/2023,001,1: right,2023_Oct_14_1706,[FINAL]_fmri_multiplication,2021.2.3,60.110774057757666
block2.xlsx,,,,,,,,,,,,,,0,1,1,1,,,,,17,0,17,0,,,,,,,,,,,,,,,,,,,,,,,,,,,,,,,,,,,,,,686.1042842530005,None,686.1042842530005,None,,,,,,,,,sub-18,30/07/2001,1: Male,14/10/2023,001,1: right,2023_Oct_14_1706,[FINAL]_fmri_multiplication,2021.2.3,60.110774057757666
block2.xlsx,,,,,,,,,,,,,,0,1,1,1,,,,,18,0,18,0,,,,,,,,,,,,,,,,,,,,,,,,,,,,,,,,,,,,,,687.1036981,None,687.1036981,None,,,,,,,,,sub-18,30/07/2001,1: Male,14/10/2023,001,1: right,2023_Oct_14_1706,[FINAL]_fmri_multiplication,2021.2.3,60.110774057757666
block2.xlsx,,,,,,,,,,,,,,0,1,1,1,,,,,19,0,19,0,,,,,,,,,,,,,,,,,,,,,,,,,,,,,,,,,,,,,,688.1035359790003,None,688.1035359790003,None,,,,,,,,,sub-18,30/07/2001,1: Male,14/10/2023,001,1: right,2023_Oct_14_1706,[FINAL]_fmri_multiplication,2021.2.3,60.110774057757666
block2.xlsx,,,,,,,,,,,,,,0,1,1,1,,,,,20,0,20,0,,,,,,,,,,,,,,,,,,,,,,,,,,,,,,,,,,,,,,689.1039344490018,None,689.1039344490018,None,,,,,,,,,sub-18,30/07/2001,1: Male,14/10/2023,001,1: right,2023_Oct_14_1706,[FINAL]_fmri_multiplication,2021.2.3,60.110774057757666
block2.xlsx,,,,,,,,,,,,,,0,1,1,1,,,,,21,0,21,0,,,,,,,,,,,,,,,,,,,,,,,,,,,,,,,,,,,,,,690.1051227150019,None,690.1051227150019,None,,,,,,,,,sub-18,30/07/2001,1: Male,14/10/2023,001,1: right,2023_Oct_14_1706,[FINAL]_fmri_multiplication,2021.2.3,60.110774057757666
block2.xlsx,,,,,,,,,,,,,,0,1,1,1,,,,,22,0,22,0,,,,,,,,,,,,,,,,,,,,,,,,,,,,,,,,,,,,,,691.1036646,None,691.1036646,None,,,,,,,,,sub-18,30/07/2001,1: Male,14/10/2023,001,1: right,2023_Oct_14_1706,[FINAL]_fmri_multiplication,2021.2.3,60.110774057757666
block2.xlsx,,,,,,,,,,,,,,0,1,1,1,,,,,23,0,23,0,,,,,,,,,,,,,,,,,,,,,,,,,,,,,,,,,,,,,,692.1036200710005,None,692.1036200710005,None,,,,,,,,,sub-18,30/07/2001,1: Male,14/10/2023,001,1: right,2023_Oct_14_1706,[FINAL]_fmri_multiplication,2021.2.3,60.110774057757666
block2.xlsx,,,,,,,,,,,,,,0,1,1,1,,,,,24,0,24,0,,,,,,,,,,,,,,,,,,,,,,,,,,,,,,,,,,,,,,693.1036244509996,None,693.1036244509996,None,,,,,,,,,sub-18,30/07/2001,1: Male,14/10/2023,001,1: right,2023_Oct_14_1706,[FINAL]_fmri_multiplication,2021.2.3,60.110774057757666
block2.xlsx,,,,,,,,,,,,,,0,1,1,1,,,,,25,0,25,0,,,,,,,,,,,,,,,,,,,,,,,,,,,,,,,,,,,,,,694.1039118230001,None,694.1039118230001,None,,,,,,,,,sub-18,30/07/2001,1: Male,14/10/2023,001,1: right,2023_Oct_14_1706,[FINAL]_fmri_multiplication,2021.2.3,60.110774057757666
block2.xlsx,,,,,,,,,,,,,,0,1,1,1,,,,,26,0,26,0,,,,,,,,,,,,,,,,,,,,,,,,,,,,,,,,,,,,,,695.1036563230009,None,695.1036563230009,None,,,,,,,,,sub-18,30/07/2001,1: Male,14/10/2023,001,1: right,2023_Oct_14_1706,[FINAL]_fmri_multiplication,2021.2.3,60.110774057757666
block2.xlsx,,,,,,,,,,,,,,0,1,1,1,,,,,27,0,27,0,,,,,,,,,,,,,,,,,,,,,,,,,,,,,,,,,,,,,,696.1043904299986,None,696.1043904299986,None,,,,,,,,,sub-18,30/07/2001,1: Male,14/10/2023,001,1: right,2023_Oct_14_1706,[FINAL]_fmri_multiplication,2021.2.3,60.110774057757666
block2.xlsx,,,,,,,,,,,,,,0,1,1,1,,,,,28,0,28,0,,,,,,,,,,,,,,,,,,,,,,,,,,,,,,,,,,,,,,697.1036430200002,None,697.1036430200002,None,,,,,,,,,sub-18,30/07/2001,1: Male,14/10/2023,001,1: right,2023_Oct_14_1706,[FINAL]_fmri_multiplication,2021.2.3,60.110774057757666
block2.xlsx,,,,,,,,,,,,,,0,1,1,1,,,,,29,0,29,0,,,,,,,,,,,,,,,,,,,,,,,,,,,,,,,,,,,,,,698.1035753569995,None,698.1035753569995,None,,,,,,,,,sub-18,30/07/2001,1: Male,14/10/2023,001,1: right,2023_Oct_14_1706,[FINAL]_fmri_multiplication,2021.2.3,60.110774057757666
block2.xlsx,,,,,,,,,,,,,,0,1,1,1,,,,,,,,,,,,,,,,,,,,,,,,,,,,,,,,,,,,,,,,,,,,,,,,,,,,,,,,,,sub-18,30/07/2001,1: Male,14/10/2023,001,1: right,2023_Oct_14_1706,[FINAL]_fmri_multiplication,2021.2.3,60.110774057757666
block3.xlsx,10,7.5,5.9,6 x 4,24,10,6 x 4 = 24,small-sized_high-interference,small-sized,high-interference,12,CorrectRESP,a,0,2,2,2,0,0,0,0,,,,,,,,,,,,,699.1042760380005,None,709.1281373349993,None,709.6039421310015,None,711.6041221839987,None,712.3540074539997,None,712.6037159369989,None,712.6037159369989,None,d,0,0.9423634039994795,712.6037159369989,None,713.5702934010005,None,713.5702934010005,None,d,0.8318694209992827,713.5702934010005,None,714.4203199,None,,,,,,,,,,,,,sub-18,30/07/2001,1: Male,14/10/2023,001,1: right,2023_Oct_14_1706,[FINAL]_fmri_multiplication,2021.2.3,60.110774057757666
block3.xlsx,23.4,7.5,2,6 x 6,30,13,6 x 6 = 30,large-sized_low-interference,large-sized,low-interference,4,IncorrectRESP,d,0,2,2,2,0,1,1,1,,,,,,,,,,,,,,,720.3204544,None,720.8203946120011,None,722.8202063790013,None,723.5704137649991,None,723.8204492289988,None,723.8204492289988,None,a,0,0.8695835510006873,723.8204492289988,None,724.7204684649987,None,724.7204684649987,None,d,0.7695556900034717,724.7204684649987,None,725.5204595630021,None,,,,,,,,,,,,,sub-18,30/07/2001,1: Male,14/10/2023,001,1: right,2023_Oct_14_1706,[FINAL]_fmri_multiplication,2021.2.3,60.110774057757666
block3.xlsx,32.9,7.5,3.2,2 x 9,18,2,2 x 9 = 18,small-sized_low-interference,small-sized,low-interference,7,CorrectRESP,a,0,2,2,2,0,2,2,2,,,,,,,,,,,,,,,727.5204863149993,None,728.0200510430004,None,730.0200981679991,None,730.7703122089988,None,731.0199713,None,731.0199713,None,d,0,0.7501966810013982,731.0199713,None,731.7869012029987,None,731.7869012029987,None,d,1.6712105260012322,731.7869012029987,None,733.4870456070021,None,,,,,,,,,,,,,sub-18,30/07/2001,1: Male,14/10/2023,001,1: right,2023_Oct_14_1706,[FINAL]_fmri_multiplication,2021.2.3,60.110774057757666
block3.xlsx,43.6,7.5,6,3 x 4,12,9,3 x 4 = 12,small-sized_high-interference,small-sized,high-interference,10,CorrectRESP,a,0,2,2,2,0,3,3,3,,,,,,,,,,,,,,,736.6866077570012,None,737.1871908470021,None,739.1865486159986,None,739.9371926880012,None,740.1869838240018,None,740.1869838240018,None,d,0,1.0631433579983423,740.1869838240018,None,741.270003,None,741.270003,None,d,0.8360251009980857,741.270003,None,742.1371705080019,None,,,,,,,,,,,,,sub-18,30/07/2001,1: Male,14/10/2023,001,1: right,2023_Oct_14_1706,[FINAL]_fmri_multiplication,2021.2.3,60.110774057757666
block3.xlsx,57.1,7.5,13.3,7 x 5,40,17,7 x 5 = 40,large-sized_low-interference,large-sized,low-interference,7,IncorrectRESP,d,0,2,2,2,0,4,4,4,,,,,,,,,,,,,,,748.1342561480014,None,748.6295293080002,None,750.6374389,None,751.3874028610007,None,751.6372334549997,None,751.6372334549997,None,a,0,0.7729036140008247,751.6372334549997,None,752.4372943010021,None,752.4372943010021,None,d,0.7488879920019826,752.4372943010021,None,753.2033852,None,,,,,,,,,,,,,sub-18,30/07/2001,1: Male,14/10/2023,001,1: right,2023_Oct_14_1706,[FINAL]_fmri_multiplication,2021.2.3,60.110774057757666
block3.xlsx,77.9,7.5,2,8 x 7,56,22,8 x 7 = 56,large-sized_high-interference,large-sized,high-interference,9,CorrectRESP,a,0,2,2,2,0,5,5,5,,,,,,,,,,,,,,,766.5036026900016,None,767.0031901690018,None,769.0032271410018,None,769.7534844660004,None,770.0034261,None,770.0034261,None,d,0,1.054709942000045,770.0034261,None,771.0870143610009,None,771.0870143610009,None,a,0.3631282120004471,771.0870143610009,None,771.4698907,None,,,,,,,,,,,,,sub-18,30/07/2001,1: Male,14/10/2023,001,1: right,2023_Oct_14_1706,[FINAL]_fmri_multiplication,2021.2.3,60.110774057757666
block3.xlsx,87.4,7.5,2.6,9 x 9,81,16,9 x 9 = 81,large-sized_low-interference,large-sized,low-interference,6,CorrectRESP,a,0,2,2,2,0,6,6,6,,,,,,,,,,,,,,,773.4702203090019,None,773.9698146,None,775.9703347579998,None,776.7203948,None,776.9699867109994,None,776.9699867109994,None,d,0,0.9360325500019826,776.9699867109994,None,777.9370729399998,None,777.9370729399998,None,d,0.7770450149982935,777.9370729399998,None,778.7367670679996,None,,,,,,,,,,,,,sub-18,30/07/2001,1: Male,14/10/2023,001,1: right,2023_Oct_14_1706,[FINAL]_fmri_multiplication,2021.2.3,60.110774057757666
block3.xlsx,97.5,7.5,2.7,4 x 5,20,8,4 x 5 = 20,small-sized_high-interference,small-sized,high-interference,8,CorrectRESP,a,0,2,2,2,0,7,7,7,,,,,,,,,,,,,,,781.3369541169996,None,781.8374695320017,None,783.8373790939986,None,784.5871834600002,None,784.8370995,None,784.8370995,None,d,0,0.7570357880031224,784.8370995,None,785.6194966740004,None,785.6194966740004,None,d,0.8386248579990934,785.6194966740004,None,786.4870162100015,None,,,,,,,,,,,,,sub-18,30/07/2001,1: Male,14/10/2023,001,1: right,2023_Oct_14_1706,[FINAL]_fmri_multiplication,2021.2.3,60.110774057757666
block3.xlsx,107.7,7.5,8.4,9 x 3,24,19,9 x 3 = 24,large-sized_high-interference,large-sized,high-interference,9,IncorrectRESP,d,0,2,2,2,0,8,8,8,,,,,,,,,,,,,,,789.1872430440017,None,789.6870634570005,None,791.6877105710009,None,792.4369784859991,None,792.6868007350022,None,792.6868007350022,None,a,0,1.1393534320013714,792.6868007350022,None,793.8535958899993,None,793.8535958899993,None,d,0.6364384260014049,793.8535958899993,None,794.5206985410005,None,,,,,,,,,,,,,sub-18,30/07/2001,1: Male,14/10/2023,001,1: right,2023_Oct_14_1706,[FINAL]_fmri_multiplication,2021.2.3,60.110774057757666
block3.xlsx,123.6,7.5,2.2,9 x 5,45,15,9 x 5 = 45,large-sized_low-interference,large-sized,low-interference,6,CorrectRESP,a,0,2,2,2,0,9,9,9,,,,,,,,,,,,,,,802.9205007560013,None,803.4202750229997,None,805.4204086060017,None,806.1697775,None,806.4198366769997,None,806.4198366769997,None,d,0,0.7182121520017972,806.4198366769997,None,807.1703699220016,None,807.1703699220016,None,d,0.5596584220002114,807.1703699220016,None,807.7521488,None,,,,,,,,,,,,,sub-18,30/07/2001,1: Male,14/10/2023,001,1: right,2023_Oct_14_1706,[FINAL]_fmri_multiplication,2021.2.3,60.110774057757666
block3.xlsx,133.3,7.5,9.7,4 x 4,16,4,4 x 4 = 16,small-sized_low-interference,small-sized,low-interference,5,CorrectRESP,a,0,2,2,2,0,10,10,10,,,,,,,,,,,,,,,809.9536539120018,None,810.4533692,None,812.4538335670004,None,813.2038413750015,None,813.4536768990001,None,813.4536768990001,None,d,0,0.9804703070003598,813.4536768990001,None,814.4535429919997,None,814.4535429919997,None,d,0.6204885609986377,814.4535429919997,None,815.1038487510014,None,,,,,,,,,,,,,sub-18,30/07/2001,1: Male,14/10/2023,001,1: right,2023_Oct_14_1706,[FINAL]_fmri_multiplication,2021.2.3,60.110774057757666
block3.xlsx,150.5,7.5,5.4,8 x 4,28,24,8 x 4 = 28,large-sized_high-interference,large-sized,high-interference,25,IncorrectRESP,d,0,2,2,2,0,11,11,11,,,,,,,,,,,,,,,824.8037027620012,None,825.3036361990016,None,827.3037426160008,None,828.0536952770017,None,828.3037197320009,None,828.3037197320009,None,a,0,0.6984754639997846,828.3037197320009,None,829.0199142370002,None,829.0199142370002,None,d,1.4701128259985126,829.0199142370002,None,830.5203839919996,None,,,,,,,,,,,,,sub-18,30/07/2001,1: Male,14/10/2023,001,1: right,2023_Oct_14_1706,[FINAL]_fmri_multiplication,2021.2.3,60.110774057757666
block3.xlsx,163.4,7.5,10.5,8 x 2,18,5,8 x 2 = 18,small-sized_low-interference,small-sized,low-interference,7,IncorrectRESP,d,0,2,2,2,0,12,12,12,,,,,,,,,,,,,,,835.9203070750009,None,836.4199258150002,None,838.4200265010004,None,839.1703234170018,None,839.4199212150015,None,839.4199212150015,None,a,0,0.7581836580029631,839.4199212150015,None,840.2030484310017,None,840.2030484310017,None,d,0.6790124450017174,840.2030484310017,None,840.9032366770007,None,,,,,,,,,,,,,sub-18,30/07/2001,1: Male,14/10/2023,001,1: right,2023_Oct_14_1706,[FINAL]_fmri_multiplication,2021.2.3,60.110774057757666
block3.xlsx,181.4,7.5,3.5,7 x 6,48,23,7 x 6 = 48,large-sized_high-interference,large-sized,high-interference,22,IncorrectRESP,d,0,2,2,2,0,13,13,13,,,,,,,,,,,,,,,851.4106926780005,None,851.9114326,None,853.9207730080016,None,854.6706556880017,None,854.9206369359999,None,854.9206369359999,None,a,0,0.8014140799969027,854.9206369359999,None,855.7542631630022,None,855.7542631630022,None,d,0.4078718929995375,855.7542631630022,None,856.1869838710008,None,,,,,,,,,,,,,sub-18,30/07/2001,1: Male,14/10/2023,001,1: right,2023_Oct_14_1706,[FINAL]_fmri_multiplication,2021.2.3,60.110774057757666
block3.xlsx,192.4,7.5,11.8,5 x 6,30,14,5 x 6 = 30,large-sized_low-interference,large-sized,low-interference,6,CorrectRESP,a,0,2,2,2,0,14,14,14,,,,,,,,,,,,,,,859.6873705819999,None,860.1870240280005,None,862.1870066369993,None,862.9372464480002,None,863.1871166170022,None,863.1871166170022,None,d,0,0.9589572449986008,863.1871166170022,None,864.1701557870001,None,864.1701557870001,None,d,0.7439373650013295,864.1701557870001,None,864.9366398950006,None,,,,,,,,,,,,,sub-18,30/07/2001,1: Male,14/10/2023,001,1: right,2023_Oct_14_1706,[FINAL]_fmri_multiplication,2021.2.3,60.110774057757666
block3.xlsx,211.7,7.5,3.7,4 x 9,36,20,4 x 9 = 36,large-sized_high-interference,large-sized,high-interference,9,CorrectRESP,a,0,2,2,2,0,15,15,15,,,,,,,,,,,,,,,876.7365532,None,877.2371504910006,None,879.2369330450019,None,879.9870027130019,None,880.2370679090018,None,880.2370679090018,None,None,0,,880.2370679090018,None,882.2366327,None,882.2366327,None,d,0.045395044,882.2366327,None,882.3033665410003,None,,,,,,,,,,,,,sub-18,30/07/2001,1: Male,14/10/2023,001,1: right,2023_Oct_14_1706,[FINAL]_fmri_multiplication,2021.2.3,60.110774057757666
block3.xlsx,222.9,7.5,2.5,7 x 7,56,18,7 x 7 = 56,large-sized_low-interference,large-sized,low-interference,7,IncorrectRESP,d,0,2,2,2,0,16,16,16,,,,,,,,,,,,,,,886.0176799030014,None,886.5124361,None,888.5206964,None,889.2707026450007,None,889.5208294450022,None,889.5208294450022,None,a,0,0.7053067759989062,889.5208294450022,None,890.2540780240015,None,890.2540780240015,None,d,0.5400669219998235,890.2540780240015,None,890.8205212989997,None,,,,,,,,,,,,,sub-18,30/07/2001,1: Male,14/10/2023,001,1: right,2023_Oct_14_1706,[FINAL]_fmri_multiplication,2021.2.3,60.110774057757666
block3.xlsx,232.9,7.5,9,6 x 3,15,7,6 x 3 = 15,small-sized_high-interference,small-sized,high-interference,8,IncorrectRESP,d,0,2,2,2,0,17,17,17,,,,,,,,,,,,,,,893.3202064680008,None,893.820366,None,895.8205917269988,None,896.5705636630009,None,896.8202745529998,None,896.8202745529998,None,a,0,0.6138588480025646,896.8202745529998,None,897.4531809830005,None,897.4531809830005,None,d,0.6929539200027648,897.4531809830005,None,898.1702995890009,None,,,,,,,,,,,,,sub-18,30/07/2001,1: Male,14/10/2023,001,1: right,2023_Oct_14_1706,[FINAL]_fmri_multiplication,2021.2.3,60.110774057757666
block3.xlsx,249.4,7.5,9.5,7 x 2,12,1,7 x 2 = 12,small-sized_low-interference,small-sized,low-interference,4,IncorrectRESP,d,0,2,2,2,0,18,18,18,,,,,,,,,,,,,,,907.1704012,None,907.6702258680016,None,909.6702559600017,None,910.4198243,None,910.6703676860016,None,910.6703676860016,None,a,0,0.6516588800004683,910.6703676860016,None,911.3537217580015,None,911.3537217580015,None,d,0.7044212510008947,911.3537217580015,None,912.0864961660009,None,,,,,,,,,,,,,sub-18,30/07/2001,1: Male,14/10/2023,001,1: right,2023_Oct_14_1706,[FINAL]_fmri_multiplication,2021.2.3,60.110774057757666
block3.xlsx,266.4,7.5,11.1,5 x 8,40,21,5 x 8 = 40,large-sized_high-interference,large-sized,high-interference,9,CorrectRESP,a,0,2,2,2,0,19,19,19,,,,,,,,,,,,,,,921.5864611479992,None,922.0874037989997,None,924.0875506490011,None,924.8374726889997,None,925.0883589570003,None,925.0883589570003,None,d,0,1.057713007001439,925.0883589570003,None,926.1703070270014,None,926.1703070270014,None,d,1.0477869730020757,926.1703070270014,None,927.2368927239986,None,,,,,,,,,,,,,sub-18,30/07/2001,1: Male,14/10/2023,001,1: right,2023_Oct_14_1706,[FINAL]_fmri_multiplication,2021.2.3,60.110774057757666
block3.xlsx,285,7.5,3.8,3 x 8,21,12,3 x 8 = 21,small-sized_high-interference,small-sized,high-interference,13,IncorrectRESP,d,0,2,2,2,0,20,20,20,,,,,,,,,,,,,,,938.3371394230016,None,938.8369163829993,None,940.8370705650013,None,941.5870543400015,None,941.8368108430004,None,941.8368108430004,None,a,0,0.7493137909987126,941.8368108430004,None,942.6033415,None,942.6033415,None,d,1.4307868850009982,942.6033415,None,944.0532376470001,None,,,,,,,,,,,,,sub-18,30/07/2001,1: Male,14/10/2023,001,1: right,2023_Oct_14_1706,[FINAL]_fmri_multiplication,2021.2.3,60.110774057757666
block3.xlsx,296.3,7.5,11.2,5 x 5,25,3,5 x 5 = 25,small-sized_low-interference,small-sized,low-interference,3,CorrectRESP,a,0,2,2,2,0,21,21,21,,,,,,,,,,,,,,,947.8537239,None,948.3535683190021,None,950.3533246,None,951.1036763970005,None,951.3540794,None,951.3540794,None,d,0,1.0800463280029362,951.3540794,None,952.4532577190002,None,952.4532577190002,None,d,1.6927772130002268,952.4532577190002,None,954.1701506589998,None,,,,,,,,,,,,,sub-18,30/07/2001,1: Male,14/10/2023,001,1: right,2023_Oct_14_1706,[FINAL]_fmri_multiplication,2021.2.3,60.110774057757666
block3.xlsx,315,7.5,2.6,7 x 3,24,11,7 x 3 = 24,small-sized_high-interference,small-sized,high-interference,13,IncorrectRESP,d,0,2,2,2,0,22,22,22,,,,,,,,,,,,,,,965.3704427,None,965.8704184980015,None,967.8700125860014,None,968.6204007429988,None,968.8699900659994,None,968.8699900659994,None,a,0,0.7321571540014702,968.8699900659994,None,969.6200184560003,None,969.6200184560003,None,d,0.4940531060019566,969.6200184560003,None,970.1366193,None,,,,,,,,,,,,,sub-18,30/07/2001,1: Male,14/10/2023,001,1: right,2023_Oct_14_1706,[FINAL]_fmri_multiplication,2021.2.3,60.110774057757666
block3.xlsx,325.1,7.5,2.4,6 x 2,10,6,6 x 2 = 10,small-sized_low-interference,small-sized,low-interference,3,IncorrectRESP,d,0,2,2,2,0,23,23,23,,,,,,,,,,,,,,,972.7370096369996,None,973.2367903,None,975.2370181520018,None,975.9868388530012,None,976.2371655440002,None,976.2371655440002,None,a,0,0.7408866029982164,976.2371655440002,None,977.0033869120016,None,977.0033869120016,None,d,0.5668104840005981,977.0033869120016,None,977.586,None,,,,,,,,,,,,,sub-18,30/07/2001,1: Male,14/10/2023,001,1: right,2023_Oct_14_1706,[FINAL]_fmri_multiplication,2021.2.3,60.110774057757666
block3.xlsx,,,,,,,,,,,,,,0,2,2,2,,,,,0,0,0,0,,,,,,,,,,,,,,,,,,,,,,,,,,,,,,,,,,,,,,979.9869590570015,None,979.9869590570015,None,,,,,,,,,sub-18,30/07/2001,1: Male,14/10/2023,001,1: right,2023_Oct_14_1706,[FINAL]_fmri_multiplication,2021.2.3,60.110774057757666
block3.xlsx,,,,,,,,,,,,,,0,2,2,2,,,,,1,0,1,0,,,,,,,,,,,,,,,,,,,,,,,,,,,,,,,,,,,,,,980.986915,980.986915,980.986915,980.986915,,,,,,,,,sub-18,30/07/2001,1: Male,14/10/2023,001,1: right,2023_Oct_14_1706,[FINAL]_fmri_multiplication,2021.2.3,60.110774057757666
block3.xlsx,,,,,,,,,,,,,,0,2,2,2,,,,,2,0,2,0,,,,,,,,,,,,,,,,,,,,,,,,,,,,,,,,,,,,,,981.9871883859996,981.9871883859996,981.9871883859996,981.9871883859996,,,,,,,,,sub-18,30/07/2001,1: Male,14/10/2023,001,1: right,2023_Oct_14_1706,[FINAL]_fmri_multiplication,2021.2.3,60.110774057757666
block3.xlsx,,,,,,,,,,,,,,0,2,2,2,,,,,3,0,3,0,,,,,,,,,,,,,,,,,,,,,,,,,,,,,,,,,,,,,,982.9873284310015,982.9873284310015,982.9873284310015,982.9873284310015,,,,,,,,,sub-18,30/07/2001,1: Male,14/10/2023,001,1: right,2023_Oct_14_1706,[FINAL]_fmri_multiplication,2021.2.3,60.110774057757666
block3.xlsx,,,,,,,,,,,,,,0,2,2,2,,,,,4,0,4,0,,,,,,,,,,,,,,,,,,,,,,,,,,,,,,,,,,,,,,983.9871352250011,983.9871352250011,983.9871352250011,983.9871352250011,,,,,,,,,sub-18,30/07/2001,1: Male,14/10/2023,001,1: right,2023_Oct_14_1706,[FINAL]_fmri_multiplication,2021.2.3,60.110774057757666
block3.xlsx,,,,,,,,,,,,,,0,2,2,2,,,,,5,0,5,0,,,,,,,,,,,,,,,,,,,,,,,,,,,,,,,,,,,,,,984.9876253,984.9876253,984.9876253,984.9876253,,,,,,,,,sub-18,30/07/2001,1: Male,14/10/2023,001,1: right,2023_Oct_14_1706,[FINAL]_fmri_multiplication,2021.2.3,60.110774057757666
block3.xlsx,,,,,,,,,,,,,,0,2,2,2,,,,,6,0,6,0,,,,,,,,,,,,,,,,,,,,,,,,,,,,,,,,,,,,,,985.9880944910001,985.9880944910001,985.9880944910001,985.9880944910001,,,,,,,,,sub-18,30/07/2001,1: Male,14/10/2023,001,1: right,2023_Oct_14_1706,[FINAL]_fmri_multiplication,2021.2.3,60.110774057757666
block3.xlsx,,,,,,,,,,,,,,0,2,2,2,,,,,7,0,7,0,,,,,,,,,,,,,,,,,,,,,,,,,,,,,,,,,,,,,,987.0044861030001,None,987.0044861030001,None,,,,,,,,,sub-18,30/07/2001,1: Male,14/10/2023,001,1: right,2023_Oct_14_1706,[FINAL]_fmri_multiplication,2021.2.3,60.110774057757666
block3.xlsx,,,,,,,,,,,,,,0,2,2,2,,,,,8,0,8,0,,,,,,,,,,,,,,,,,,,,,,,,,,,,,,,,,,,,,,988.0043881230013,None,988.0043881230013,None,,,,,,,,,sub-18,30/07/2001,1: Male,14/10/2023,001,1: right,2023_Oct_14_1706,[FINAL]_fmri_multiplication,2021.2.3,60.110774057757666
block3.xlsx,,,,,,,,,,,,,,0,2,2,2,,,,,9,0,9,0,,,,,,,,,,,,,,,,,,,,,,,,,,,,,,,,,,,,,,989.0063568289988,None,989.0063568289988,None,,,,,,,,,sub-18,30/07/2001,1: Male,14/10/2023,001,1: right,2023_Oct_14_1706,[FINAL]_fmri_multiplication,2021.2.3,60.110774057757666
block3.xlsx,,,,,,,,,,,,,,0,2,2,2,,,,,10,0,10,0,,,,,,,,,,,,,,,,,,,,,,,,,,,,,,,,,,,,,,990.0064639609991,None,990.0064639609991,None,,,,,,,,,sub-18,30/07/2001,1: Male,14/10/2023,001,1: right,2023_Oct_14_1706,[FINAL]_fmri_multiplication,2021.2.3,60.110774057757666
block3.xlsx,,,,,,,,,,,,,,0,2,2,2,,,,,11,0,11,0,,,,,,,,,,,,,,,,,,,,,,,,,,,,,,,,,,,,,,991.0054777379992,None,991.0054777379992,None,,,,,,,,,sub-18,30/07/2001,1: Male,14/10/2023,001,1: right,2023_Oct_14_1706,[FINAL]_fmri_multiplication,2021.2.3,60.110774057757666
block3.xlsx,,,,,,,,,,,,,,0,2,2,2,,,,,12,0,12,0,,,,,,,,,,,,,,,,,,,,,,,,,,,,,,,,,,,,,,991.9882602629987,None,991.9882602629987,None,,,,,,,,,sub-18,30/07/2001,1: Male,14/10/2023,001,1: right,2023_Oct_14_1706,[FINAL]_fmri_multiplication,2021.2.3,60.110774057757666
block3.xlsx,,,,,,,,,,,,,,0,2,2,2,,,,,13,0,13,0,,,,,,,,,,,,,,,,,,,,,,,,,,,,,,,,,,,,,,992.9882176030005,None,992.9882176030005,None,,,,,,,,,sub-18,30/07/2001,1: Male,14/10/2023,001,1: right,2023_Oct_14_1706,[FINAL]_fmri_multiplication,2021.2.3,60.110774057757666
block3.xlsx,,,,,,,,,,,,,,0,2,2,2,,,,,14,0,14,0,,,,,,,,,,,,,,,,,,,,,,,,,,,,,,,,,,,,,,993.9876306879996,None,993.9876306879996,None,,,,,,,,,sub-18,30/07/2001,1: Male,14/10/2023,001,1: right,2023_Oct_14_1706,[FINAL]_fmri_multiplication,2021.2.3,60.110774057757666
block3.xlsx,,,,,,,,,,,,,,0,2,2,2,,,,,15,0,15,0,,,,,,,,,,,,,,,,,,,,,,,,,,,,,,,,,,,,,,994.9873932250011,994.9873932250011,994.9873932250011,994.9873932250011,,,,,,,,,sub-18,30/07/2001,1: Male,14/10/2023,001,1: right,2023_Oct_14_1706,[FINAL]_fmri_multiplication,2021.2.3,60.110774057757666
block3.xlsx,,,,,,,,,,,,,,0,2,2,2,,,,,16,0,16,0,,,,,,,,,,,,,,,,,,,,,,,,,,,,,,,,,,,,,,995.9877605680012,995.9877605680012,995.9877605680012,995.9877605680012,,,,,,,,,sub-18,30/07/2001,1: Male,14/10/2023,001,1: right,2023_Oct_14_1706,[FINAL]_fmri_multiplication,2021.2.3,60.110774057757666
block3.xlsx,,,,,,,,,,,,,,0,2,2,2,,,,,17,0,17,0,,,,,,,,,,,,,,,,,,,,,,,,,,,,,,,,,,,,,,996.9878453199999,996.9878453199999,996.9878453199999,996.9878453199999,,,,,,,,,sub-18,30/07/2001,1: Male,14/10/2023,001,1: right,2023_Oct_14_1706,[FINAL]_fmri_multiplication,2021.2.3,60.110774057757666
block3.xlsx,,,,,,,,,,,,,,0,2,2,2,,,,,18,0,18,0,,,,,,,,,,,,,,,,,,,,,,,,,,,,,,,,,,,,,,997.9892366980021,None,997.9892366980021,None,,,,,,,,,sub-18,30/07/2001,1: Male,14/10/2023,001,1: right,2023_Oct_14_1706,[FINAL]_fmri_multiplication,2021.2.3,60.110774057757666
block3.xlsx,,,,,,,,,,,,,,0,2,2,2,,,,,19,0,19,0,,,,,,,,,,,,,,,,,,,,,,,,,,,,,,,,,,,,,,998.9892289179988,None,998.9892289179988,None,,,,,,,,,sub-18,30/07/2001,1: Male,14/10/2023,001,1: right,2023_Oct_14_1706,[FINAL]_fmri_multiplication,2021.2.3,60.110774057757666
block3.xlsx,,,,,,,,,,,,,,0,2,2,2,,,,,20,0,20,0,,,,,,,,,,,,,,,,,,,,,,,,,,,,,,,,,,,,,,1000.0054914300017,None,1000.0054914300017,None,,,,,,,,,sub-18,30/07/2001,1: Male,14/10/2023,001,1: right,2023_Oct_14_1706,[FINAL]_fmri_multiplication,2021.2.3,60.110774057757666
block3.xlsx,,,,,,,,,,,,,,0,2,2,2,,,,,21,0,21,0,,,,,,,,,,,,,,,,,,,,,,,,,,,,,,,,,,,,,,1001.0033106890005,None,1001.0033106890005,None,,,,,,,,,sub-18,30/07/2001,1: Male,14/10/2023,001,1: right,2023_Oct_14_1706,[FINAL]_fmri_multiplication,2021.2.3,60.110774057757666
block3.xlsx,,,,,,,,,,,,,,0,2,2,2,,,,,22,0,22,0,,,,,,,,,,,,,,,,,,,,,,,,,,,,,,,,,,,,,,1002.0035849170017,None,1002.0035849170017,None,,,,,,,,,sub-18,30/07/2001,1: Male,14/10/2023,001,1: right,2023_Oct_14_1706,[FINAL]_fmri_multiplication,2021.2.3,60.110774057757666
block3.xlsx,,,,,,,,,,,,,,0,2,2,2,,,,,23,0,23,0,,,,,,,,,,,,,,,,,,,,,,,,,,,,,,,,,,,,,,1003.0035576560003,None,1003.0035576560003,None,,,,,,,,,sub-18,30/07/2001,1: Male,14/10/2023,001,1: right,2023_Oct_14_1706,[FINAL]_fmri_multiplication,2021.2.3,60.110774057757666
block3.xlsx,,,,,,,,,,,,,,0,2,2,2,,,,,24,0,24,0,,,,,,,,,,,,,,,,,,,,,,,,,,,,,,,,,,,,,,1004.0037870369997,None,1004.0037870369997,None,,,,,,,,,sub-18,30/07/2001,1: Male,14/10/2023,001,1: right,2023_Oct_14_1706,[FINAL]_fmri_multiplication,2021.2.3,60.110774057757666
block3.xlsx,,,,,,,,,,,,,,0,2,2,2,,,,,25,0,25,0,,,,,,,,,,,,,,,,,,,,,,,,,,,,,,,,,,,,,,1005.0034026510002,None,1005.0034026510002,None,,,,,,,,,sub-18,30/07/2001,1: Male,14/10/2023,001,1: right,2023_Oct_14_1706,[FINAL]_fmri_multiplication,2021.2.3,60.110774057757666
block3.xlsx,,,,,,,,,,,,,,0,2,2,2,,,,,26,0,26,0,,,,,,,,,,,,,,,,,,,,,,,,,,,,,,,,,,,,,,1006.0034338289988,None,1006.0034338289988,None,,,,,,,,,sub-18,30/07/2001,1: Male,14/10/2023,001,1: right,2023_Oct_14_1706,[FINAL]_fmri_multiplication,2021.2.3,60.110774057757666
block3.xlsx,,,,,,,,,,,,,,0,2,2,2,,,,,27,0,27,0,,,,,,,,,,,,,,,,,,,,,,,,,,,,,,,,,,,,,,1007.0030422839991,None,1007.0030422839991,None,,,,,,,,,sub-18,30/07/2001,1: Male,14/10/2023,001,1: right,2023_Oct_14_1706,[FINAL]_fmri_multiplication,2021.2.3,60.110774057757666
block3.xlsx,,,,,,,,,,,,,,0,2,2,2,,,,,28,0,28,0,,,,,,,,,,,,,,,,,,,,,,,,,,,,,,,,,,,,,,1008.0033620260001,None,1008.0033620260001,None,,,,,,,,,sub-18,30/07/2001,1: Male,14/10/2023,001,1: right,2023_Oct_14_1706,[FINAL]_fmri_multiplication,2021.2.3,60.110774057757666
block3.xlsx,,,,,,,,,,,,,,0,2,2,2,,,,,29,0,29,0,,,,,,,,,,,,,,,,,,,,,,,,,,,,,,,,,,,,,,1009.0032992779998,None,1009.0032992779998,None,,,,,,,,,sub-18,30/07/2001,1: Male,14/10/2023,001,1: right,2023_Oct_14_1706,[FINAL]_fmri_multiplication,2021.2.3,60.110774057757666
block3.xlsx,,,,,,,,,,,,,,0,2,2,2,,,,,,,,,,,,,,,,,,,,,,,,,,,,,,,,,,,,,,,,,,,,,,,,,,,,,,,,,,sub-18,30/07/2001,1: Male,14/10/2023,001,1: right,2023_Oct_14_1706,[FINAL]_fmri_multiplication,2021.2.3,60.110774057757666
block4.xlsx,10,7.5,8.4,5 x 6,36,14,5 x 6 = 36,large-sized_low-interference,large-sized,low-interference,6,IncorrectRESP,d,0,3,3,3,0,0,0,0,,,,,,,,,,,,,1010.0044685590001,None,1020.0259881679995,None,1020.5032038380014,None,1022.5037736679988,None,1023.2538201220013,None,1023.4873945950021,None,1023.4873945950021,None,a,0,1.082761144,1023.4873945950021,None,1024.5874713580015,None,1024.5874713580015,None,d,0.678618522,1024.5874713580015,None,1025.2868006300014,None,,,,,,,,,,,,,sub-18,30/07/2001,1: Male,14/10/2023,001,1: right,2023_Oct_14_1706,[FINAL]_fmri_multiplication,2021.2.3,60.110774057757666
block4.xlsx,25.9,7.5,2.6,6 x 2,12,6,6 x 2 = 12,small-sized_low-interference,small-sized,low-interference,3,CorrectRESP,a,0,3,3,3,0,1,1,1,,,,,,,,,,,,,,,1033.6874109689998,None,1034.187133022002,None,1036.1870664380003,None,1036.9369843450004,None,1037.1866601340007,None,1037.1866601340007,None,d,0,0.6234765209992474,1037.1866601340007,None,1037.8367558169994,None,1037.8367558169994,None,d,0.31726116399659077,1037.8367558169994,None,1038.1869615140022,None,,,,,,,,,,,,,sub-18,30/07/2001,1: Male,14/10/2023,001,1: right,2023_Oct_14_1706,[FINAL]_fmri_multiplication,2021.2.3,60.110774057757666
block4.xlsx,36,7.5,3.8,8 x 4,32,24,8 x 4 = 32,large-sized_high-interference,large-sized,high-interference,25,CorrectRESP,a,0,3,3,3,0,2,2,2,,,,,,,,,,,,,,,1040.7863756879997,None,1041.2866906279996,None,1043.2869924160004,None,1044.0371879980012,None,1044.2867236829989,None,1044.2867236829989,None,d,0,1.0114008199998352,1044.2867236829989,None,1045.3198160550019,None,1045.3198160550019,None,d,0.42626430300151696,1045.3198160550019,None,1045.770378256002,None,,,,,,,,,,,,,sub-18,30/07/2001,1: Male,14/10/2023,001,1: right,2023_Oct_14_1706,[FINAL]_fmri_multiplication,2021.2.3,60.110774057757666
block4.xlsx,47.3,7.5,3.8,9 x 5,40,15,9 x 5 = 40,large-sized_low-interference,large-sized,low-interference,6,IncorrectRESP,d,0,3,3,3,0,3,3,3,,,,,,,,,,,,,,,1049.570369732999,None,1050.0704636369992,None,1052.0702479989995,None,1052.8203480230004,None,1053.070449630999,None,1053.070449630999,None,a,0,0.6757122099988919,1053.070449630999,None,1053.7699217129993,None,1053.7699217129993,None,d,0.9281726599983813,1053.7699217129993,None,1054.7198868769992,None,,,,,,,,,,,,,sub-18,30/07/2001,1: Male,14/10/2023,001,1: right,2023_Oct_14_1706,[FINAL]_fmri_multiplication,2021.2.3,60.110774057757666
block4.xlsx,58.6,7.5,4.4,6 x 3,18,7,6 x 3 = 18,small-sized_high-interference,small-sized,high-interference,8,CorrectRESP,a,0,3,3,3,0,4,4,4,,,,,,,,,,,,,,,1058.520501,None,1059.0203217919989,None,1061.020598138999,None,1061.770653022002,None,1062.0374312140011,None,1062.0374312140011,None,d,0,0.7166180839994922,1062.0374312140011,None,1062.7709203960003,None,1062.7709203960003,None,d,0.6391594679989794,1062.7709203960003,None,1063.437281,None,,,,,,,,,,,,,sub-18,30/07/2001,1: Male,14/10/2023,001,1: right,2023_Oct_14_1706,[FINAL]_fmri_multiplication,2021.2.3,60.110774057757666
block4.xlsx,70.5,7.5,2.6,4 x 9,32,20,4 x 9 = 32,large-sized_high-interference,large-sized,high-interference,9,IncorrectRESP,d,0,3,3,3,0,5,5,5,,,,,,,,,,,,,,,1067.8373354210016,None,1068.3373961159996,None,1070.3374506979999,None,1071.0872613460015,None,1071.336781549002,None,1071.336781549002,None,a,0,1.5532473519997438,1071.336781549002,None,1072.9205428659989,None,1072.9205428659989,None,a,0.5695298550017469,1072.9205428659989,None,1073.5202863150007,None,,,,,,,,,,,,,sub-18,30/07/2001,1: Male,14/10/2023,001,1: right,2023_Oct_14_1706,[FINAL]_fmri_multiplication,2021.2.3,60.110774057757666
block4.xlsx,80.6,7.5,9.4,3 x 4,15,9,3 x 4 = 15,small-sized_high-interference,small-sized,high-interference,10,IncorrectRESP,d,0,3,3,3,0,6,6,6,,,,,,,,,,,,,,,1076.120650525001,None,1076.620149,None,1078.6203718069992,None,1079.3703237619993,None,1079.6202646720012,None,1079.6202646720012,None,a,0,0.7258107470006507,1079.6202646720012,None,1080.3698380150017,None,1080.3698380150017,None,a,0.6322844259993872,1080.3698380150017,None,1081.0199419839992,None,,,,,,,,,,,,,sub-18,30/07/2001,1: Male,14/10/2023,001,1: right,2023_Oct_14_1706,[FINAL]_fmri_multiplication,2021.2.3,60.110774057757666
block4.xlsx,97.5,7.5,6,6 x 6,36,13,6 x 6 = 36,large-sized_low-interference,large-sized,low-interference,4,CorrectRESP,a,0,3,3,3,0,7,7,7,,,,,,,,,,,,,,,1090.4199725010003,None,1090.9198143540016,None,1092.9206427390018,None,1093.670053345999,None,1093.923322450999,None,1093.923322450999,None,d,0,1.574844535000011,1093.923322450999,None,1095.520129239001,None,1095.520129239001,None,a,1.049964682,1095.520129239001,None,1096.587247233001,None,,,,,,,,,,,,,sub-18,30/07/2001,1: Male,14/10/2023,001,1: right,2023_Oct_14_1706,[FINAL]_fmri_multiplication,2021.2.3,60.110774057757666
block4.xlsx,111,7.5,5.8,7 x 6,42,23,7 x 6 = 42,large-sized_high-interference,large-sized,high-interference,22,CorrectRESP,a,0,3,3,3,0,8,8,8,,,,,,,,,,,,,,,1102.5866358579988,None,1103.0870519080017,None,1105.0870984680005,None,1105.8372992820005,None,1106.0873666840016,None,1106.0873666840016,None,d,0,0.8107425819980563,1106.0873666840016,None,1106.9198252880014,None,1106.9198252880014,None,d,0.6582748749970051,1106.9198252880014,None,1107.603849,None,,,,,,,,,,,,,sub-18,30/07/2001,1: Male,14/10/2023,001,1: right,2023_Oct_14_1706,[FINAL]_fmri_multiplication,2021.2.3,60.110774057757666
block4.xlsx,124.3,7.5,3.6,6 x 4,28,10,6 x 4 = 28,small-sized_high-interference,small-sized,high-interference,12,IncorrectRESP,d,0,3,3,3,0,9,9,9,,,,,,,,,,,,,,,1113.4034781240007,None,1113.903657234001,None,1115.9037798470017,None,1116.6535850069995,None,1116.9038663409992,None,1116.9038663409992,None,a,0,0.7861393690000114,1116.9038663409992,None,1117.720377,None,1117.720377,None,d,0.9616687359994103,1117.720377,None,1118.7032575369994,None,,,,,,,,,,,,,sub-18,30/07/2001,1: Male,14/10/2023,001,1: right,2023_Oct_14_1706,[FINAL]_fmri_multiplication,2021.2.3,60.110774057757666
block4.xlsx,135.4,7.5,9.3,5 x 5,30,3,5 x 5 = 30,small-sized_low-interference,small-sized,low-interference,3,IncorrectRESP,d,0,3,3,3,0,10,10,10,,,,,,,,,,,,,,,1122.3032226130017,None,1122.803271241999,None,1124.8034605350003,None,1125.5536530579993,None,1125.803614422999,None,1125.803614422999,None,a,0,1.1024207350019424,1125.803614422999,None,1126.9368446119988,None,1126.9368446119988,None,d,0.9371903899991594,1126.9368446119988,None,1127.903812397999,None,,,,,,,,,,,,,sub-18,30/07/2001,1: Male,14/10/2023,001,1: right,2023_Oct_14_1706,[FINAL]_fmri_multiplication,2021.2.3,60.110774057757666
block4.xlsx,152.2,7.5,9.8,7 x 3,21,11,7 x 3 = 21,small-sized_high-interference,small-sized,high-interference,13,CorrectRESP,a,0,3,3,3,0,11,11,11,,,,,,,,,,,,,,,1137.2009702130017,None,1137.697371647002,None,1139.7041106370016,None,1140.454018676999,None,1140.7040718370008,None,1140.7040718370008,None,d,0,0.8820626289998472,1140.7040718370008,None,1141.6033202180006,None,1141.6033202180006,None,d,0.23882469000091078,1141.6033202180006,None,1141.8704605370003,None,,,,,,,,,,,,,sub-18,30/07/2001,1: Male,14/10/2023,001,1: right,2023_Oct_14_1706,[FINAL]_fmri_multiplication,2021.2.3,60.110774057757666
block4.xlsx,169.5,7.5,12.8,9 x 9,72,16,9 x 9 = 72,large-sized_low-interference,large-sized,low-interference,6,IncorrectRESP,d,0,3,3,3,0,12,12,12,,,,,,,,,,,,,,,1151.6703912779994,None,1152.1701106159999,None,1154.1704483380017,None,1154.9204107580008,None,1155.1704526180001,None,1155.1704526180001,None,a,0,0.8076831080034026,1155.1704526180001,None,1156.0034813499988,None,1156.0034813499988,None,a,0.3826767730024585,1156.0034813499988,None,1156.4032593529992,None,,,,,,,,,,,,,sub-18,30/07/2001,1: Male,14/10/2023,001,1: right,2023_Oct_14_1706,[FINAL]_fmri_multiplication,2021.2.3,60.110774057757666
block4.xlsx,189.8,7.5,8.9,4 x 4,20,4,4 x 4 = 20,small-sized_low-interference,small-sized,low-interference,5,IncorrectRESP,d,0,3,3,3,0,13,13,13,,,,,,,,,,,,,,,1169.2041624880003,None,1169.7124172330005,None,1171.7207411140007,None,1172.470741336001,None,1172.720664536002,None,1172.720664536002,None,a,0,0.8814662760014471,1172.720664536002,None,1173.6202793760021,None,1173.6202793760021,None,d,0.5258418759985943,1173.6202793760021,None,1174.1706772840007,None,,,,,,,,,,,,,sub-18,30/07/2001,1: Male,14/10/2023,001,1: right,2023_Oct_14_1706,[FINAL]_fmri_multiplication,2021.2.3,60.110774057757666
block4.xlsx,206.2,7.5,2.4,5 x 8,45,21,5 x 8 = 45,large-sized_high-interference,large-sized,high-interference,9,IncorrectRESP,d,0,3,3,3,0,14,14,14,,,,,,,,,,,,,,,1183.0702849930021,None,1183.570097669999,None,1185.5703564550022,None,1186.3202059530013,None,1186.5701432819988,None,1186.5701432819988,None,a,0,0.7119574890020886,1186.5701432819988,None,1187.3032448970007,None,1187.3032448970007,None,a,0.7309075459997985,1187.3032448970007,None,1188.0532533449987,None,,,,,,,,,,,,,sub-18,30/07/2001,1: Male,14/10/2023,001,1: right,2023_Oct_14_1706,[FINAL]_fmri_multiplication,2021.2.3,60.110774057757666
block4.xlsx,216.1,7.5,14,8 x 2,16,5,8 x 2 = 16,small-sized_low-interference,small-sized,low-interference,7,CorrectRESP,a,0,3,3,3,0,15,15,15,,,,,,,,,,,,,,,1190.4536082420018,None,1190.9538197420006,None,1192.9536806860015,None,1193.7035951040016,None,1193.9537735740014,None,1193.9537735740014,None,d,0,0.6002763700016658,1193.9537735740014,None,1194.5863908620013,None,1194.5863908620013,None,d,0.22375586999987718,1194.5863908620013,None,1194.8362503440003,None,,,,,,,,,,,,,sub-18,30/07/2001,1: Male,14/10/2023,001,1: right,2023_Oct_14_1706,[FINAL]_fmri_multiplication,2021.2.3,60.110774057757666
block4.xlsx,237.6,7.5,5.2,7 x 5,35,17,7 x 5 = 35,large-sized_low-interference,large-sized,low-interference,7,CorrectRESP,a,0,3,3,3,0,16,16,16,,,,,,,,,,,,,,,1208.837496430002,None,1209.3371924800012,None,1211.3370426319998,None,1212.0871326650013,None,1212.3370619080015,None,1212.3370619080015,None,d,0,0.6970856840016495,1212.3370619080015,None,1213.053350803999,None,1213.053350803999,None,d,0.16487870099808788,1213.053350803999,None,1213.2365380859992,None,,,,,,,,,,,,,sub-18,30/07/2001,1: Male,14/10/2023,001,1: right,2023_Oct_14_1706,[FINAL]_fmri_multiplication,2021.2.3,60.110774057757666
block4.xlsx,250.3,7.5,9.6,8 x 7,63,22,8 x 7 = 63,large-sized_high-interference,large-sized,high-interference,9,IncorrectRESP,d,0,3,3,3,0,17,17,17,,,,,,,,,,,,,,,1218.436725,None,1218.9368629089986,None,1220.9371803169997,None,1221.6870440909988,None,1221.9371184270021,None,1221.9371184270021,None,a,0,0.952903432,1221.9371184270021,None,1222.9203354509991,None,1222.9203354509991,None,a,0.7378300590025901,1222.9203354509991,None,1223.6870548190018,None,,,,,,,,,,,,,sub-18,30/07/2001,1: Male,14/10/2023,001,1: right,2023_Oct_14_1706,[FINAL]_fmri_multiplication,2021.2.3,60.110774057757666
block4.xlsx,267.4,7.5,2.6,2 x 9,16,2,2 x 9 = 16,small-sized_low-interference,small-sized,low-interference,7,IncorrectRESP,d,0,3,3,3,0,18,18,18,,,,,,,,,,,,,,,1233.2870384779999,None,1233.7869772070007,None,1235.7869239149986,None,1236.5372470000002,None,1236.787228961999,None,1236.787228961999,None,a,0,0.7988275230018189,1236.787228961999,None,1237.6185587120017,None,1237.6185587120017,None,d,0.6634646999991674,1237.6185587120017,None,1238.3038135099996,None,,,,,,,,,,,,,sub-18,30/07/2001,1: Male,14/10/2023,001,1: right,2023_Oct_14_1706,[FINAL]_fmri_multiplication,2021.2.3,60.110774057757666
block4.xlsx,277.5,7.5,2.3,9 x 3,27,19,9 x 3 = 27,large-sized_high-interference,large-sized,high-interference,9,CorrectRESP,a,0,3,3,3,0,19,19,19,,,,,,,,,,,,,,,1240.9041196350008,None,1241.4038986650012,None,1243.403246,None,1244.1540947920003,None,1244.4037210040005,None,1244.4037210040005,None,d,0,0.5824399730008736,1244.4037210040005,None,1245.003617074999,None,1245.003617074999,None,d,0.2705186569983198,1245.003617074999,None,1245.3041707890006,None,,,,,,,,,,,,,sub-18,30/07/2001,1: Male,14/10/2023,001,1: right,2023_Oct_14_1706,[FINAL]_fmri_multiplication,2021.2.3,60.110774057757666
block4.xlsx,287.3,7.5,3.1,4 x 5,16,8,4 x 5 = 16,small-sized_high-interference,small-sized,high-interference,8,IncorrectRESP,d,0,3,3,3,0,20,20,20,,,,,,,,,,,,,,,1247.603658308999,None,1248.1037827399996,None,1250.1036963709994,None,1250.853719783001,None,1251.1036711390007,None,1251.1036711390007,None,a,0,0.6984570310014533,1251.1036711390007,None,1251.8200593590009,None,1251.8200593590009,None,d,0.5019366199994693,1251.8200593590009,None,1252.3537485060006,None,,,,,,,,,,,,,sub-18,30/07/2001,1: Male,14/10/2023,001,1: right,2023_Oct_14_1706,[FINAL]_fmri_multiplication,2021.2.3,60.110774057757666
block4.xlsx,297.9,7.5,2.7,7 x 7,49,18,7 x 7 = 49,large-sized_low-interference,large-sized,low-interference,7,CorrectRESP,a,0,3,3,3,0,21,21,21,,,,,,,,,,,,,,,1255.4531248800013,None,1255.9535246300002,None,1257.952651,None,1258.7037492259988,None,1258.9536816180007,None,1258.9536816180007,None,d,0,0.44046666999929585,1258.9536816180007,None,1259.419847,None,1259.419847,None,d,0.1341937869983667,1259.419847,None,1259.5869499660002,None,,,,,,,,,,,,,sub-18,30/07/2001,1: Male,14/10/2023,001,1: right,2023_Oct_14_1706,[FINAL]_fmri_multiplication,2021.2.3,60.110774057757666
block4.xlsx,308.1,7.5,4.8,7 x 2,14,1,7 x 2 = 14,small-sized_low-interference,small-sized,low-interference,4,CorrectRESP,a,0,3,3,3,0,22,22,22,,,,,,,,,,,,,,,1262.287054684999,None,1262.7868127330003,None,1264.7865142049995,None,1265.5370398800005,None,1265.7864850670012,None,1265.7864850670012,None,d,0,0.60754488,1265.7864850670012,None,1266.4196490950017,None,1266.4196490950017,None,d,0.17438228800165234,1266.4196490950017,None,1266.6200009989989,None,,,,,,,,,,,,,sub-18,30/07/2001,1: Male,14/10/2023,001,1: right,2023_Oct_14_1706,[FINAL]_fmri_multiplication,2021.2.3,60.110774057757666
block4.xlsx,320.4,7.5,7.1,3 x 8,24,12,3 x 8 = 24,small-sized_high-interference,small-sized,high-interference,13,CorrectRESP,a,0,3,3,3,0,23,23,23,,,,,,,,,,,,,,,1271.4204832050018,None,1271.921247538001,None,1273.916693,None,1274.670785893999,None,1274.9206069690008,None,1274.9206069690008,None,d,0,0.609418893,1274.9206069690008,None,1275.5536907120004,None,1275.5536907120004,None,d,0.1444478599987633,1275.5536907120004,None,1275.7208197219989,None,,,,,,,,,,,,,sub-18,30/07/2001,1: Male,14/10/2023,001,1: right,2023_Oct_14_1706,[FINAL]_fmri_multiplication,2021.2.3,60.110774057757666
block4.xlsx,,,,,,,,,,,,,,0,3,3,3,,,,,0,0,0,0,,,,,,,,,,,,,,,,,,,,,,,,,,,,,,,,,,,,,,1282.8203572290004,None,1282.8203572290004,None,,,,,,,,,sub-18,30/07/2001,1: Male,14/10/2023,001,1: right,2023_Oct_14_1706,[FINAL]_fmri_multiplication,2021.2.3,60.110774057757666
block4.xlsx,,,,,,,,,,,,,,0,3,3,3,,,,,1,0,1,0,,,,,,,,,,,,,,,,,,,,,,,,,,,,,,,,,,,,,,1283.8202737280008,1283.8202737280008,1283.8202737280008,1283.8202737280008,,,,,,,,,sub-18,30/07/2001,1: Male,14/10/2023,001,1: right,2023_Oct_14_1706,[FINAL]_fmri_multiplication,2021.2.3,60.110774057757666
block4.xlsx,,,,,,,,,,,,,,0,3,3,3,,,,,2,0,2,0,,,,,,,,,,,,,,,,,,,,,,,,,,,,,,,,,,,,,,1284.820087821001,1284.820087821001,1284.820087821001,1284.820087821001,,,,,,,,,sub-18,30/07/2001,1: Male,14/10/2023,001,1: right,2023_Oct_14_1706,[FINAL]_fmri_multiplication,2021.2.3,60.110774057757666
block4.xlsx,,,,,,,,,,,,,,0,3,3,3,,,,,3,0,3,0,,,,,,,,,,,,,,,,,,,,,,,,,,,,,,,,,,,,,,1285.8200482819993,1285.8200482819993,1285.8200482819993,1285.8200482819993,,,,,,,,,sub-18,30/07/2001,1: Male,14/10/2023,001,1: right,2023_Oct_14_1706,[FINAL]_fmri_multiplication,2021.2.3,60.110774057757666
block4.xlsx,,,,,,,,,,,,,,0,3,3,3,,,,,4,0,4,0,,,,,,,,,,,,,,,,,,,,,,,,,,,,,,,,,,,,,,1286.8204634680005,1286.8204634680005,1286.8204634680005,1286.8204634680005,,,,,,,,,sub-18,30/07/2001,1: Male,14/10/2023,001,1: right,2023_Oct_14_1706,[FINAL]_fmri_multiplication,2021.2.3,60.110774057757666
block4.xlsx,,,,,,,,,,,,,,0,3,3,3,,,,,5,0,5,0,,,,,,,,,,,,,,,,,,,,,,,,,,,,,,,,,,,,,,1287.8207499689997,1287.8207499689997,1287.8207499689997,1287.8207499689997,,,,,,,,,sub-18,30/07/2001,1: Male,14/10/2023,001,1: right,2023_Oct_14_1706,[FINAL]_fmri_multiplication,2021.2.3,60.110774057757666
block4.xlsx,,,,,,,,,,,,,,0,3,3,3,,,,,6,0,6,0,,,,,,,,,,,,,,,,,,,,,,,,,,,,,,,,,,,,,,1288.820544672999,1288.820544672999,1288.820544672999,1288.820544672999,,,,,,,,,sub-18,30/07/2001,1: Male,14/10/2023,001,1: right,2023_Oct_14_1706,[FINAL]_fmri_multiplication,2021.2.3,60.110774057757666
block4.xlsx,,,,,,,,,,,,,,0,3,3,3,,,,,7,0,7,0,,,,,,,,,,,,,,,,,,,,,,,,,,,,,,,,,,,,,,1289.8208463230003,1289.8208463230003,1289.8208463230003,1289.8208463230003,,,,,,,,,sub-18,30/07/2001,1: Male,14/10/2023,001,1: right,2023_Oct_14_1706,[FINAL]_fmri_multiplication,2021.2.3,60.110774057757666
block4.xlsx,,,,,,,,,,,,,,0,3,3,3,,,,,8,0,8,0,,,,,,,,,,,,,,,,,,,,,,,,,,,,,,,,,,,,,,1290.8202801119987,1290.8202801119987,1290.8202801119987,1290.8202801119987,,,,,,,,,sub-18,30/07/2001,1: Male,14/10/2023,001,1: right,2023_Oct_14_1706,[FINAL]_fmri_multiplication,2021.2.3,60.110774057757666
block4.xlsx,,,,,,,,,,,,,,0,3,3,3,,,,,9,0,9,0,,,,,,,,,,,,,,,,,,,,,,,,,,,,,,,,,,,,,,1291.8209756050019,1291.8209756050019,1291.8209756050019,1291.8209756050019,,,,,,,,,sub-18,30/07/2001,1: Male,14/10/2023,001,1: right,2023_Oct_14_1706,[FINAL]_fmri_multiplication,2021.2.3,60.110774057757666
block4.xlsx,,,,,,,,,,,,,,0,3,3,3,,,,,10,0,10,0,,,,,,,,,,,,,,,,,,,,,,,,,,,,,,,,,,,,,,1292.8201912069999,1292.8201912069999,1292.8201912069999,1292.8201912069999,,,,,,,,,sub-18,30/07/2001,1: Male,14/10/2023,001,1: right,2023_Oct_14_1706,[FINAL]_fmri_multiplication,2021.2.3,60.110774057757666
block4.xlsx,,,,,,,,,,,,,,0,3,3,3,,,,,11,0,11,0,,,,,,,,,,,,,,,,,,,,,,,,,,,,,,,,,,,,,,1293.820272896999,1293.820272896999,1293.820272896999,1293.820272896999,,,,,,,,,sub-18,30/07/2001,1: Male,14/10/2023,001,1: right,2023_Oct_14_1706,[FINAL]_fmri_multiplication,2021.2.3,60.110774057757666
block4.xlsx,,,,,,,,,,,,,,0,3,3,3,,,,,12,0,12,0,,,,,,,,,,,,,,,,,,,,,,,,,,,,,,,,,,,,,,1294.821566,1294.821566,1294.821566,1294.821566,,,,,,,,,sub-18,30/07/2001,1: Male,14/10/2023,001,1: right,2023_Oct_14_1706,[FINAL]_fmri_multiplication,2021.2.3,60.110774057757666
block4.xlsx,,,,,,,,,,,,,,0,3,3,3,,,,,13,0,13,0,,,,,,,,,,,,,,,,,,,,,,,,,,,,,,,,,,,,,,1295.837032776999,None,1295.837032776999,None,,,,,,,,,sub-18,30/07/2001,1: Male,14/10/2023,001,1: right,2023_Oct_14_1706,[FINAL]_fmri_multiplication,2021.2.3,60.110774057757666
block4.xlsx,,,,,,,,,,,,,,0,3,3,3,,,,,14,0,14,0,,,,,,,,,,,,,,,,,,,,,,,,,,,,,,,,,,,,,,1296.8373206819997,None,1296.8373206819997,None,,,,,,,,,sub-18,30/07/2001,1: Male,14/10/2023,001,1: right,2023_Oct_14_1706,[FINAL]_fmri_multiplication,2021.2.3,60.110774057757666
block4.xlsx,,,,,,,,,,,,,,0,3,3,3,,,,,15,0,15,0,,,,,,,,,,,,,,,,,,,,,,,,,,,,,,,,,,,,,,1297.837245597002,None,1297.837245597002,None,,,,,,,,,sub-18,30/07/2001,1: Male,14/10/2023,001,1: right,2023_Oct_14_1706,[FINAL]_fmri_multiplication,2021.2.3,60.110774057757666
block4.xlsx,,,,,,,,,,,,,,0,3,3,3,,,,,16,0,16,0,,,,,,,,,,,,,,,,,,,,,,,,,,,,,,,,,,,,,,1298.8371463000003,None,1298.8371463000003,None,,,,,,,,,sub-18,30/07/2001,1: Male,14/10/2023,001,1: right,2023_Oct_14_1706,[FINAL]_fmri_multiplication,2021.2.3,60.110774057757666
block4.xlsx,,,,,,,,,,,,,,0,3,3,3,,,,,17,0,17,0,,,,,,,,,,,,,,,,,,,,,,,,,,,,,,,,,,,,,,1299.836924176001,None,1299.836924176001,None,,,,,,,,,sub-18,30/07/2001,1: Male,14/10/2023,001,1: right,2023_Oct_14_1706,[FINAL]_fmri_multiplication,2021.2.3,60.110774057757666
block4.xlsx,,,,,,,,,,,,,,0,3,3,3,,,,,18,0,18,0,,,,,,,,,,,,,,,,,,,,,,,,,,,,,,,,,,,,,,1300.8368380140018,None,1300.8368380140018,None,,,,,,,,,sub-18,30/07/2001,1: Male,14/10/2023,001,1: right,2023_Oct_14_1706,[FINAL]_fmri_multiplication,2021.2.3,60.110774057757666
block4.xlsx,,,,,,,,,,,,,,0,3,3,3,,,,,19,0,19,0,,,,,,,,,,,,,,,,,,,,,,,,,,,,,,,,,,,,,,1301.8370275519992,None,1301.8370275519992,None,,,,,,,,,sub-18,30/07/2001,1: Male,14/10/2023,001,1: right,2023_Oct_14_1706,[FINAL]_fmri_multiplication,2021.2.3,60.110774057757666
block4.xlsx,,,,,,,,,,,,,,0,3,3,3,,,,,20,0,20,0,,,,,,,,,,,,,,,,,,,,,,,,,,,,,,,,,,,,,,1302.837083213999,None,1302.837083213999,None,,,,,,,,,sub-18,30/07/2001,1: Male,14/10/2023,001,1: right,2023_Oct_14_1706,[FINAL]_fmri_multiplication,2021.2.3,60.110774057757666
block4.xlsx,,,,,,,,,,,,,,0,3,3,3,,,,,21,0,21,0,,,,,,,,,,,,,,,,,,,,,,,,,,,,,,,,,,,,,,1303.8369397060014,None,1303.8369397060014,None,,,,,,,,,sub-18,30/07/2001,1: Male,14/10/2023,001,1: right,2023_Oct_14_1706,[FINAL]_fmri_multiplication,2021.2.3,60.110774057757666
block4.xlsx,,,,,,,,,,,,,,0,3,3,3,,,,,22,0,22,0,,,,,,,,,,,,,,,,,,,,,,,,,,,,,,,,,,,,,,1304.8369309910013,None,1304.8369309910013,None,,,,,,,,,sub-18,30/07/2001,1: Male,14/10/2023,001,1: right,2023_Oct_14_1706,[FINAL]_fmri_multiplication,2021.2.3,60.110774057757666
block4.xlsx,,,,,,,,,,,,,,0,3,3,3,,,,,23,0,23,0,,,,,,,,,,,,,,,,,,,,,,,,,,,,,,,,,,,,,,1305.83804,None,1305.83804,None,,,,,,,,,sub-18,30/07/2001,1: Male,14/10/2023,001,1: right,2023_Oct_14_1706,[FINAL]_fmri_multiplication,2021.2.3,60.110774057757666
block4.xlsx,,,,,,,,,,,,,,0,3,3,3,,,,,24,0,24,0,,,,,,,,,,,,,,,,,,,,,,,,,,,,,,,,,,,,,,1306.8371520809997,None,1306.8371520809997,None,,,,,,,,,sub-18,30/07/2001,1: Male,14/10/2023,001,1: right,2023_Oct_14_1706,[FINAL]_fmri_multiplication,2021.2.3,60.110774057757666
block4.xlsx,,,,,,,,,,,,,,0,3,3,3,,,,,25,0,25,0,,,,,,,,,,,,,,,,,,,,,,,,,,,,,,,,,,,,,,1307.8249661910013,None,1307.8249661910013,None,,,,,,,,,sub-18,30/07/2001,1: Male,14/10/2023,001,1: right,2023_Oct_14_1706,[FINAL]_fmri_multiplication,2021.2.3,60.110774057757666
block4.xlsx,,,,,,,,,,,,,,0,3,3,3,,,,,26,0,26,0,,,,,,,,,,,,,,,,,,,,,,,,,,,,,,,,,,,,,,1308.8380802089996,None,1308.8380802089996,None,,,,,,,,,sub-18,30/07/2001,1: Male,14/10/2023,001,1: right,2023_Oct_14_1706,[FINAL]_fmri_multiplication,2021.2.3,60.110774057757666
block4.xlsx,,,,,,,,,,,,,,0,3,3,3,,,,,27,0,27,0,,,,,,,,,,,,,,,,,,,,,,,,,,,,,,,,,,,,,,1309.8377377350007,None,1309.8377377350007,None,,,,,,,,,sub-18,30/07/2001,1: Male,14/10/2023,001,1: right,2023_Oct_14_1706,[FINAL]_fmri_multiplication,2021.2.3,60.110774057757666
block4.xlsx,,,,,,,,,,,,,,0,3,3,3,,,,,28,0,28,0,,,,,,,,,,,,,,,,,,,,,,,,,,,,,,,,,,,,,,1310.8381345650014,None,1310.8381345650014,None,,,,,,,,,sub-18,30/07/2001,1: Male,14/10/2023,001,1: right,2023_Oct_14_1706,[FINAL]_fmri_multiplication,2021.2.3,60.110774057757666
block4.xlsx,,,,,,,,,,,,,,0,3,3,3,,,,,29,0,29,0,,,,,,,,,,,,,,,,,,,,,,,,,,,,,,,,,,,,,,1311.8376065049997,None,1311.8376065049997,None,,,,,,,,,sub-18,30/07/2001,1: Male,14/10/2023,001,1: right,2023_Oct_14_1706,[FINAL]_fmri_multiplication,2021.2.3,60.110774057757666
block4.xlsx,,,,,,,,,,,,,,0,3,3,3,,,,,,,,,,,,,,,,,,,,,,,,,,,,,,,,,,,,,,,,,,,,,,,,,,,,,,,,,,sub-18,30/07/2001,1: Male,14/10/2023,001,1: right,2023_Oct_14_1706,[FINAL]_fmri_multiplication,2021.2.3,60.110774057757666
,,,,,,,,,,,,,,,,,,,,,,,,,,,,,,,,,,,,,,,,,,,,,,,,,,,,,,,,,,,,,,,,,,,1312.836933507002,1314.8373865430003,1314.8206630880013,None,y,376.82637709499977,1314.8206630880013,None,sub-18,30/07/2001,1: Male,14/10/2023,001,1: right,2023_Oct_14_1706,[FINAL]_fmri_multiplication,2021.2.3,60.110774057757666