blocks_file,start,dur,rest,mult_problemB,mult_options,stim_trial,mult_stim,type,ProblemSize,InterferenceLH,InterferenceLevel,mult_type,corrRESP,blocks_set.thisRepN,blocks_set.thisTrialN,blocks_set.thisN,blocks_set.thisIndex,TRIALS.thisRepN,TRIALS.thisTrialN,TRIALS.thisN,TRIALS.thisIndex,timer_loop.thisRepN,timer_loop.thisTrialN,timer_loop.thisN,timer_loop.thisIndex,WAIT_TEXT.started,WAIT_TEXT.stopped,scan_start_trigger.keys,scan_start_trigger.rt,scan_start_trigger.started,scan_start_trigger.stopped,MAIN_SCREEN.started,MAIN_SCREEN.stopped,Block_Text.started,Block_Text.stopped,asterisk500ms.started,asterisk500ms.stopped,mult_question_text.started,mult_question_text.stopped,equal_text.started,equal_text.stopped,blank250_text.started,blank250_text.stopped,Mult_OPTION.started,Mult_OPTION.stopped,Mult_YN.started,Mult_YN.stopped,Mult_Resp.keys,Mult_Resp.corr,Mult_Resp.rt,Mult_Resp.started,Mult_Resp.stopped,Strategy_Q.started,Strategy_Q.stopped,Strategy_Option.started,Strategy_Option.stopped,Strategy_RESP.keys,Strategy_RESP.rt,Strategy_RESP.started,Strategy_RESP.stopped,jitters.started,jitters.stopped,resting_text.started,resting_text.stopped,countdown_timer.started,countdown_timer.stopped,participant,Date of birth (DD/MM/YEAR),gender,Testing Date (DD/MM/YEAR),session,handedness,date,expName,psychopyVersion,frameRate
,,,,,,,,,,,,,,,,,,,,,,,,,,36.49493677,None,s,33.596029190999616,36.49493677,None,,,,,,,,,,,,,,,,,,,,,,,,,,,,,,,,,,,,sub-02,26/07/2002,2: Female,15/07/2023,001,1: right,2023_Jul_15_1222,[FINAL]_fmri_multiplication,2021.2.3,59.64567557967755
block1.xlsx,10,7.5,15.3,6 x 6,36,13,6 x 6 = 36,large-sized_low-interference,large-sized,low-interference,4,CorrectRESP,a,0,0,0,0,0,0,0,0,,,,,,,,,,,70.11811349199888,None,75.13784271799886,None,85.16226572,None,85.63722217599934,None,87.63489423600004,None,88.38495578999937,None,88.63724999599981,None,88.63724999599981,None,d,0,0.6142858659986814,88.63724999599981,None,89.28313313299986,None,89.28313313299986,None,d,0.6404531930002122,89.28313313299986,None,89.95165085000008,None,,,,,sub-02,26/07/2002,2: Female,15/07/2023,001,1: right,2023_Jul_15_1222,[FINAL]_fmri_multiplication,2021.2.3,59.64567557967755
block1.xlsx,32.8,7.5,2.5,2 x 9,18,2,2 x 9 = 18,small-sized_low-interference,small-sized,low-interference,7,CorrectRESP,a,0,0,0,0,0,1,1,1,,,,,,,,,,,,,,,105.25138395999966,None,105.75210930299909,None,107.75102083599995,None,108.50103481599945,None,108.75291278899931,None,108.75291278899931,None,d,0,0.5785571309988882,108.75291278899931,None,109.35095293099948,None,109.35095293099948,None,d,0.3726895469990268,109.35095293099948,None,109.75091371399867,None,,,,,sub-02,26/07/2002,2: Female,15/07/2023,001,1: right,2023_Jul_15_1222,[FINAL]_fmri_multiplication,2021.2.3,59.64567557967755
block1.xlsx,42.8,7.5,3.8,8 x 4,28,24,8 x 4 = 28,large-sized_high-interference,large-sized,high-interference,25,IncorrectRESP,d,0,0,0,0,0,2,2,2,,,,,,,,,,,,,,,112.25102674399932,None,112.75291329399988,None,114.76812151000013,None,115.51778891100003,None,115.76785395600018,None,115.76785395600018,None,a,0,0.6196902009996847,115.76785395600018,None,116.41808814599972,None,116.41808814599972,None,d,0.28157790300065244,116.41808814599972,None,116.71772064799916,None,,,,,sub-02,26/07/2002,2: Female,15/07/2023,001,1: right,2023_Jul_15_1222,[FINAL]_fmri_multiplication,2021.2.3,59.64567557967755
block1.xlsx,54.1,7.5,5.5,7 x 2,14,1,7 x 2 = 14,small-sized_low-interference,small-sized,low-interference,4,CorrectRESP,a,0,0,0,0,0,3,3,3,,,,,,,,,,,,,,,120.51775890099998,None,121.01957643999958,None,123.03501828499975,None,123.78499999499945,None,124.0350665650003,None,124.0350665650003,None,d,0,0.4566017720007949,124.0350665650003,None,124.51777183299964,None,124.51777183299964,None,d,0.2697755139997753,124.51777183299964,None,124.81836497699987,None,,,,,sub-02,26/07/2002,2: Female,15/07/2023,001,1: right,2023_Jul_15_1222,[FINAL]_fmri_multiplication,2021.2.3,59.64567557967755
block1.xlsx,67.1,7.5,3,7 x 7,56,18,7 x 7 = 56,large-sized_low-interference,large-sized,low-interference,7,IncorrectRESP,d,0,0,0,0,0,4,4,4,,,,,,,,,,,,,,,130.31809807399986,None,130.81812073000037,None,132.81855720400017,None,133.56859939599963,None,133.82099556199864,None,133.82099556199864,None,a,0,0.550590466,133.82099556199864,None,134.3997650759993,None,134.3997650759993,None,d,0.23574100400037423,134.3997650759993,None,134.65132358600022,None,,,,,sub-02,26/07/2002,2: Female,15/07/2023,001,1: right,2023_Jul_15_1222,[FINAL]_fmri_multiplication,2021.2.3,59.64567557967755
block1.xlsx,77.6,7.5,2.1,3 x 4,12,9,3 x 4 = 12,small-sized_high-interference,small-sized,high-interference,10,CorrectRESP,a,0,0,0,0,0,5,5,5,,,,,,,,,,,,,,,137.6516419620002,None,138.1511405129986,None,140.15151325099941,None,140.9011606539989,None,141.1515271649987,None,141.1515271649987,None,d,0,0.6840077569995628,141.1515271649987,None,141.86807808499907,None,141.86807808499907,None,d,0.17539702599970042,141.86807808499907,None,142.06766211099966,None,,,,,sub-02,26/07/2002,2: Female,15/07/2023,001,1: right,2023_Jul_15_1222,[FINAL]_fmri_multiplication,2021.2.3,59.64567557967755
block1.xlsx,87.2,7.5,5,8 x 7,63,22,8 x 7 = 63,large-sized_high-interference,large-sized,high-interference,9,IncorrectRESP,d,0,0,0,0,0,6,6,6,,,,,,,,,,,,,,,144.16816251099954,None,144.6681047229995,None,146.66810933099987,None,147.4182867,None,147.6683893749996,None,147.6683893749996,None,a,0,0.5031399189992953,147.6683893749996,None,148.20127911999953,None,148.20127911999953,None,d,0.17828697000004468,148.20127911999953,None,148.40104215700012,None,,,,,sub-02,26/07/2002,2: Female,15/07/2023,001,1: right,2023_Jul_15_1222,[FINAL]_fmri_multiplication,2021.2.3,59.64567557967755
block1.xlsx,99.7,7.5,3,5 x 5,25,3,5 x 5 = 25,small-sized_low-interference,small-sized,low-interference,3,CorrectRESP,a,0,0,0,0,0,7,7,7,,,,,,,,,,,,,,,153.4010453640003,None,153.90033554399997,None,155.90131200799988,None,156.65149366999867,None,156.90263226199932,None,156.90263226199932,None,d,0,0.500941086,156.90263226199932,None,157.4332889,None,157.4332889,None,d,0.14622134199998982,157.4332889,None,157.60109306199956,None,,,,,sub-02,26/07/2002,2: Female,15/07/2023,001,1: right,2023_Jul_15_1222,[FINAL]_fmri_multiplication,2021.2.3,59.64567557967755
block1.xlsx,110.2,7.5,6.5,6 x 4,28,10,6 x 4 = 28,small-sized_high-interference,small-sized,high-interference,12,IncorrectRESP,d,0,0,0,0,0,8,8,8,,,,,,,,,,,,,,,160.60170807099894,None,161.10139200699996,None,163.11869263100016,None,163.86857651599894,None,164.11852062899925,None,164.11852062899925,None,a,0,0.48504902999957267,164.11852062899925,None,164.63519335899946,None,164.63519335899946,None,d,0.17639295399931143,164.63519335899946,None,164.83490869399975,None,,,,,sub-02,26/07/2002,2: Female,15/07/2023,001,1: right,2023_Jul_15_1222,[FINAL]_fmri_multiplication,2021.2.3,59.64567557967755
block1.xlsx,124.2,7.5,5.7,5 x 8,40,21,5 x 8 = 40,large-sized_high-interference,large-sized,high-interference,9,CorrectRESP,a,0,0,0,0,0,9,9,9,,,,,,,,,,,,,,,171.33511967599952,None,171.83476202899874,None,173.83482499599995,None,174.58485312899938,None,174.83593020599983,None,174.83593020599983,None,d,0,0.47967862199948286,174.83593020599983,None,175.33380076199865,None,175.33380076199865,None,d,0.1737882659999741,175.33380076199865,None,175.5335863599994,None,,,,,sub-02,26/07/2002,2: Female,15/07/2023,001,1: right,2023_Jul_15_1222,[FINAL]_fmri_multiplication,2021.2.3,59.64567557967755
block1.xlsx,137.4,7.5,11.2,7 x 3,24,11,7 x 3 = 24,small-sized_high-interference,small-sized,high-interference,13,IncorrectRESP,d,0,0,0,0,0,10,10,10,,,,,,,,,,,,,,,181.23488233199896,None,181.7338367,None,183.73466534199906,None,184.4842474369998,None,184.7355946709995,None,184.7355946709995,None,a,0,0.5720690540001669,184.7355946709995,None,185.3341453459998,None,185.3341453459998,None,d,0.22945243399954052,185.3341453459998,None,185.5836232,None,,,,,sub-02,26/07/2002,2: Female,15/07/2023,001,1: right,2023_Jul_15_1222,[FINAL]_fmri_multiplication,2021.2.3,59.64567557967755
block1.xlsx,156.1,7.5,6.9,5 x 6,30,14,5 x 6 = 30,large-sized_low-interference,large-sized,low-interference,6,CorrectRESP,a,0,0,0,0,0,11,11,11,,,,,,,,,,,,,,,196.78475273799995,None,197.28226342000016,None,199.2853127369999,None,200.03526603599857,None,200.28522387999874,None,200.28522387999874,None,d,0,0.4303897110003163,200.28522387999874,None,200.73473600000034,None,200.73473600000034,None,d,0.21298241800104734,200.73473600000034,None,200.96814574499876,None,,,,,sub-02,26/07/2002,2: Female,15/07/2023,001,1: right,2023_Jul_15_1222,[FINAL]_fmri_multiplication,2021.2.3,59.64567557967755
block1.xlsx,170.5,7.5,2.4,6 x 2,10,6,6 x 2 = 10,small-sized_low-interference,small-sized,low-interference,3,IncorrectRESP,d,0,0,0,0,0,12,12,12,,,,,,,,,,,,,,,207.86752119300036,None,208.3668395599998,None,210.36818389200016,None,211.11822417499934,None,211.36821598499955,None,211.36821598499955,None,a,0,0.6033206650008651,211.36821598499955,None,212.0012698069986,None,212.0012698069986,None,d,0.20221958099864423,212.0012698069986,None,212.2338374409992,None,,,,,sub-02,26/07/2002,2: Female,15/07/2023,001,1: right,2023_Jul_15_1222,[FINAL]_fmri_multiplication,2021.2.3,59.64567557967755
block1.xlsx,180.4,7.5,4.6,4 x 9,36,20,4 x 9 = 36,large-sized_high-interference,large-sized,high-interference,9,CorrectRESP,a,0,0,0,0,0,13,13,13,,,,,,,,,,,,,,,214.63483553100014,None,215.13447362099942,None,217.13483672799885,None,217.88460016599856,None,218.13404304899996,None,218.13404304899996,None,d,0,0.3735932830004458,218.13404304899996,None,218.5347272809995,None,218.5347272809995,None,d,0.19689802400171175,218.5347272809995,None,218.7510125560002,None,,,,,sub-02,26/07/2002,2: Female,15/07/2023,001,1: right,2023_Jul_15_1222,[FINAL]_fmri_multiplication,2021.2.3,59.64567557967755
block1.xlsx,192.5,7.5,9,7 x 5,40,17,7 x 5 = 40,large-sized_low-interference,large-sized,low-interference,7,IncorrectRESP,d,0,0,0,0,0,14,14,14,,,,,,,,,,,,,,,223.35105546999876,None,223.85138909600028,None,225.85099961499873,None,226.60102536799968,None,226.8517220829999,None,226.8517220829999,None,a,0,0.47989051600052335,226.8517220829999,None,227.35087358700002,None,227.35087358700002,None,d,0.20465125100054138,227.35087358700002,None,227.58480921699993,None,,,,,sub-02,26/07/2002,2: Female,15/07/2023,001,1: right,2023_Jul_15_1222,[FINAL]_fmri_multiplication,2021.2.3,59.64567557967755
block1.xlsx,209,7.5,5.8,6 x 3,18,7,6 x 3 = 18,small-sized_high-interference,small-sized,high-interference,8,CorrectRESP,a,0,0,0,0,0,15,15,15,,,,,,,,,,,,,,,236.58528079699863,None,237.0837692469995,None,239.0851139059996,None,239.83544135199918,None,240.08442426500005,None,240.08442426500005,None,d,0,0.3992851060011162,240.08442426500005,None,240.50142424600017,None,240.50142424600017,None,d,0.19021121799960383,240.50142424600017,None,240.7182356129997,None,,,,,sub-02,26/07/2002,2: Female,15/07/2023,001,1: right,2023_Jul_15_1222,[FINAL]_fmri_multiplication,2021.2.3,59.64567557967755
block1.xlsx,222.3,7.5,2.9,7 x 6,48,23,7 x 6 = 48,large-sized_high-interference,large-sized,high-interference,22,IncorrectRESP,d,0,0,0,0,0,16,16,16,,,,,,,,,,,,,,,246.51794573299958,None,247.01780086799954,None,249.01811024299968,None,249.76824037799997,None,250.0181378549987,None,250.0181378549987,None,a,0,0.45750996000060695,250.0181378549987,None,250.50114210399988,None,250.50114210399988,None,d,0.22244328099986888,250.50114210399988,None,250.7515617829995,None,,,,,sub-02,26/07/2002,2: Female,15/07/2023,001,1: right,2023_Jul_15_1222,[FINAL]_fmri_multiplication,2021.2.3,59.64567557967755
block1.xlsx,232.7,7.5,6.9,9 x 5,45,15,9 x 5 = 45,large-sized_low-interference,large-sized,low-interference,6,CorrectRESP,a,0,0,0,0,0,17,17,17,,,,,,,,,,,,,,,253.6514883009986,None,254.1512235249993,None,256.15148357499857,None,256.9015727599999,None,257.1513411799988,None,257.1513411799988,None,d,0,0.46819436800069525,257.1513411799988,None,257.65118468000037,None,257.65118468000037,None,d,0.2325394210001832,257.65118468000037,None,257.90138323999963,None,,,,,sub-02,26/07/2002,2: Female,15/07/2023,001,1: right,2023_Jul_15_1222,[FINAL]_fmri_multiplication,2021.2.3,59.64567557967755
block1.xlsx,247.1,7.5,2.5,4 x 4,20,4,4 x 4 = 20,small-sized_low-interference,small-sized,low-interference,5,IncorrectRESP,d,0,0,0,0,0,18,18,18,,,,,,,,,,,,,,,264.80165890399985,None,265.30132581399994,None,267.3045175539992,None,268.04774532400006,None,268.2945133309986,None,268.2945133309986,None,a,0,0.4051482100003341,268.2945133309986,None,268.71790175599926,None,268.71790175599926,None,d,0.18983535100051085,268.71790175599926,None,268.93480943899885,None,,,,,sub-02,26/07/2002,2: Female,15/07/2023,001,1: right,2023_Jul_15_1222,[FINAL]_fmri_multiplication,2021.2.3,59.64567557967755
block1.xlsx,257.1,7.5,3.7,9 x 3,27,19,9 x 3 = 27,large-sized_high-interference,large-sized,high-interference,9,CorrectRESP,a,0,0,0,0,0,19,19,19,,,,,,,,,,,,,,,271.4354123209996,None,271.93391608899947,None,273.93485300499924,None,274.68518142299945,None,274.93482812299953,None,274.93482812299953,None,d,0,0.5968928250003955,274.93482812299953,None,275.55111167500036,None,275.55111167500036,None,d,0.1644899989987607,275.55111167500036,None,275.73522747099923,None,,,,,sub-02,26/07/2002,2: Female,15/07/2023,001,1: right,2023_Jul_15_1222,[FINAL]_fmri_multiplication,2021.2.3,59.64567557967755
block1.xlsx,268.3,7.5,3.5,4 x 5,20,8,4 x 5 = 20,small-sized_high-interference,small-sized,high-interference,8,CorrectRESP,a,0,0,0,0,0,20,20,20,,,,,,,,,,,,,,,279.4348573030002,None,279.9359539119996,None,281.95099870800004,None,282.6991096549991,None,282.95110872799887,None,282.95110872799887,None,d,0,0.47644914999909815,282.95110872799887,None,283.4509509599993,None,283.4509509599993,None,d,0.28062678999958734,283.4509509599993,None,283.75097841800016,None,,,,,sub-02,26/07/2002,2: Female,15/07/2023,001,1: right,2023_Jul_15_1222,[FINAL]_fmri_multiplication,2021.2.3,59.64567557967755
block1.xlsx,279.3,7.5,11.6,9 x 9,72,16,9 x 9 = 72,large-sized_low-interference,large-sized,low-interference,6,IncorrectRESP,d,0,0,0,0,0,21,21,21,,,,,,,,,,,,,,,287.2512625139989,None,287.7515450939991,None,289.7511840089992,None,290.5012186160002,None,290.7509571219998,None,290.7509571219998,None,a,0,0.5086790630011819,290.7509571219998,None,291.2842833089999,None,291.2842833089999,None,d,0.2393347229990468,291.2842833089999,None,291.55142441099997,None,,,,,sub-02,26/07/2002,2: Female,15/07/2023,001,1: right,2023_Jul_15_1222,[FINAL]_fmri_multiplication,2021.2.3,59.64567557967755
block1.xlsx,298.4,7.5,12.8,3 x 8,21,12,3 x 8 = 21,small-sized_high-interference,small-sized,high-interference,13,IncorrectRESP,d,0,0,0,0,0,22,22,22,,,,,,,,,,,,,,,303.14789665399985,None,303.64331731899983,None,305.65191073200003,None,306.40197549000004,None,306.6530165759996,None,306.6530165759996,None,a,0,0.44656549399951473,306.6530165759996,None,307.11695998199866,None,307.11695998199866,None,d,0.23055385699990438,307.11695998199866,None,307.36811794799905,None,,,,,sub-02,26/07/2002,2: Female,15/07/2023,001,1: right,2023_Jul_15_1222,[FINAL]_fmri_multiplication,2021.2.3,59.64567557967755
block1.xlsx,318.7,7.5,8.8,8 x 2,18,5,8 x 2 = 18,small-sized_low-interference,small-sized,low-interference,7,IncorrectRESP,d,0,0,0,0,0,23,23,23,,,,,,,,,,,,,,,320.1682810069997,None,320.66794317699896,None,322.66816512100013,None,323.4182065,None,323.6665288179993,None,323.6665288179993,None,a,0,0.4730555979986093,323.6665288179993,None,324.1680771079991,None,324.1680771079991,None,d,0.2354884319993289,324.1680771079991,None,324.4349166739994,None,,,,,sub-02,26/07/2002,2: Female,15/07/2023,001,1: right,2023_Jul_15_1222,[FINAL]_fmri_multiplication,2021.2.3,59.64567557967755
block1.xlsx,,,,,,,,,,,,,,0,0,0,0,,,,,0,0,0,0,,,,,,,,,,,,,,,,,,,,,,,,,,,,,,,,,,,,,,333.2385376980001,None,333.2385376980001,None,sub-02,26/07/2002,2: Female,15/07/2023,001,1: right,2023_Jul_15_1222,[FINAL]_fmri_multiplication,2021.2.3,59.64567557967755
block1.xlsx,,,,,,,,,,,,,,0,0,0,0,,,,,1,0,1,0,,,,,,,,,,,,,,,,,,,,,,,,,,,,,,,,,,,,,,334.2503588950003,None,334.2503588950003,None,sub-02,26/07/2002,2: Female,15/07/2023,001,1: right,2023_Jul_15_1222,[FINAL]_fmri_multiplication,2021.2.3,59.64567557967755
block1.xlsx,,,,,,,,,,,,,,0,0,0,0,,,,,2,0,2,0,,,,,,,,,,,,,,,,,,,,,,,,,,,,,,,,,,,,,,335.2525100570001,None,335.2525100570001,None,sub-02,26/07/2002,2: Female,15/07/2023,001,1: right,2023_Jul_15_1222,[FINAL]_fmri_multiplication,2021.2.3,59.64567557967755
block1.xlsx,,,,,,,,,,,,,,0,0,0,0,,,,,3,0,3,0,,,,,,,,,,,,,,,,,,,,,,,,,,,,,,,,,,,,,,336.25253126699863,None,336.25253126699863,None,sub-02,26/07/2002,2: Female,15/07/2023,001,1: right,2023_Jul_15_1222,[FINAL]_fmri_multiplication,2021.2.3,59.64567557967755
block1.xlsx,,,,,,,,,,,,,,0,0,0,0,,,,,4,0,4,0,,,,,,,,,,,,,,,,,,,,,,,,,,,,,,,,,,,,,,337.2532134989997,None,337.2532134989997,None,sub-02,26/07/2002,2: Female,15/07/2023,001,1: right,2023_Jul_15_1222,[FINAL]_fmri_multiplication,2021.2.3,59.64567557967755
block1.xlsx,,,,,,,,,,,,,,0,0,0,0,,,,,5,0,5,0,,,,,,,,,,,,,,,,,,,,,,,,,,,,,,,,,,,,,,338.2541096449986,None,338.2541096449986,None,sub-02,26/07/2002,2: Female,15/07/2023,001,1: right,2023_Jul_15_1222,[FINAL]_fmri_multiplication,2021.2.3,59.64567557967755
block1.xlsx,,,,,,,,,,,,,,0,0,0,0,,,,,6,0,6,0,,,,,,,,,,,,,,,,,,,,,,,,,,,,,,,,,,,,,,339.25345622699933,None,339.25345622699933,None,sub-02,26/07/2002,2: Female,15/07/2023,001,1: right,2023_Jul_15_1222,[FINAL]_fmri_multiplication,2021.2.3,59.64567557967755
block1.xlsx,,,,,,,,,,,,,,0,0,0,0,,,,,7,0,7,0,,,,,,,,,,,,,,,,,,,,,,,,,,,,,,,,,,,,,,340.25212650699905,None,340.25212650699905,None,sub-02,26/07/2002,2: Female,15/07/2023,001,1: right,2023_Jul_15_1222,[FINAL]_fmri_multiplication,2021.2.3,59.64567557967755
block1.xlsx,,,,,,,,,,,,,,0,0,0,0,,,,,8,0,8,0,,,,,,,,,,,,,,,,,,,,,,,,,,,,,,,,,,,,,,341.2516441789994,None,341.2516441789994,None,sub-02,26/07/2002,2: Female,15/07/2023,001,1: right,2023_Jul_15_1222,[FINAL]_fmri_multiplication,2021.2.3,59.64567557967755
block1.xlsx,,,,,,,,,,,,,,0,0,0,0,,,,,9,0,9,0,,,,,,,,,,,,,,,,,,,,,,,,,,,,,,,,,,,,,,342.25287070899867,None,342.25287070899867,None,sub-02,26/07/2002,2: Female,15/07/2023,001,1: right,2023_Jul_15_1222,[FINAL]_fmri_multiplication,2021.2.3,59.64567557967755
block1.xlsx,,,,,,,,,,,,,,0,0,0,0,,,,,10,0,10,0,,,,,,,,,,,,,,,,,,,,,,,,,,,,,,,,,,,,,,343.25215507199937,None,343.25215507199937,None,sub-02,26/07/2002,2: Female,15/07/2023,001,1: right,2023_Jul_15_1222,[FINAL]_fmri_multiplication,2021.2.3,59.64567557967755
block1.xlsx,,,,,,,,,,,,,,0,0,0,0,,,,,11,0,11,0,,,,,,,,,,,,,,,,,,,,,,,,,,,,,,,,,,,,,,344.25227405199985,None,344.25227405199985,None,sub-02,26/07/2002,2: Female,15/07/2023,001,1: right,2023_Jul_15_1222,[FINAL]_fmri_multiplication,2021.2.3,59.64567557967755
block1.xlsx,,,,,,,,,,,,,,0,0,0,0,,,,,12,0,12,0,,,,,,,,,,,,,,,,,,,,,,,,,,,,,,,,,,,,,,345.25264125799913,None,345.25264125799913,None,sub-02,26/07/2002,2: Female,15/07/2023,001,1: right,2023_Jul_15_1222,[FINAL]_fmri_multiplication,2021.2.3,59.64567557967755
block1.xlsx,,,,,,,,,,,,,,0,0,0,0,,,,,13,0,13,0,,,,,,,,,,,,,,,,,,,,,,,,,,,,,,,,,,,,,,346.25241968299997,None,346.25241968299997,None,sub-02,26/07/2002,2: Female,15/07/2023,001,1: right,2023_Jul_15_1222,[FINAL]_fmri_multiplication,2021.2.3,59.64567557967755
block1.xlsx,,,,,,,,,,,,,,0,0,0,0,,,,,14,0,14,0,,,,,,,,,,,,,,,,,,,,,,,,,,,,,,,,,,,,,,347.25143557999945,None,347.25143557999945,None,sub-02,26/07/2002,2: Female,15/07/2023,001,1: right,2023_Jul_15_1222,[FINAL]_fmri_multiplication,2021.2.3,59.64567557967755
block1.xlsx,,,,,,,,,,,,,,0,0,0,0,,,,,15,0,15,0,,,,,,,,,,,,,,,,,,,,,,,,,,,,,,,,,,,,,,348.2523592109992,None,348.2523592109992,None,sub-02,26/07/2002,2: Female,15/07/2023,001,1: right,2023_Jul_15_1222,[FINAL]_fmri_multiplication,2021.2.3,59.64567557967755
block1.xlsx,,,,,,,,,,,,,,0,0,0,0,,,,,16,0,16,0,,,,,,,,,,,,,,,,,,,,,,,,,,,,,,,,,,,,,,349.25060398499954,None,349.25060398499954,None,sub-02,26/07/2002,2: Female,15/07/2023,001,1: right,2023_Jul_15_1222,[FINAL]_fmri_multiplication,2021.2.3,59.64567557967755
block1.xlsx,,,,,,,,,,,,,,0,0,0,0,,,,,17,0,17,0,,,,,,,,,,,,,,,,,,,,,,,,,,,,,,,,,,,,,,350.2499334160002,None,350.2499334160002,None,sub-02,26/07/2002,2: Female,15/07/2023,001,1: right,2023_Jul_15_1222,[FINAL]_fmri_multiplication,2021.2.3,59.64567557967755
block1.xlsx,,,,,,,,,,,,,,0,0,0,0,,,,,18,0,18,0,,,,,,,,,,,,,,,,,,,,,,,,,,,,,,,,,,,,,,351.2512723479995,None,351.2512723479995,None,sub-02,26/07/2002,2: Female,15/07/2023,001,1: right,2023_Jul_15_1222,[FINAL]_fmri_multiplication,2021.2.3,59.64567557967755
block1.xlsx,,,,,,,,,,,,,,0,0,0,0,,,,,19,0,19,0,,,,,,,,,,,,,,,,,,,,,,,,,,,,,,,,,,,,,,352.2524053,None,352.2524053,None,sub-02,26/07/2002,2: Female,15/07/2023,001,1: right,2023_Jul_15_1222,[FINAL]_fmri_multiplication,2021.2.3,59.64567557967755
block1.xlsx,,,,,,,,,,,,,,0,0,0,0,,,,,20,0,20,0,,,,,,,,,,,,,,,,,,,,,,,,,,,,,,,,,,,,,,353.25147004799874,None,353.25147004799874,None,sub-02,26/07/2002,2: Female,15/07/2023,001,1: right,2023_Jul_15_1222,[FINAL]_fmri_multiplication,2021.2.3,59.64567557967755
block1.xlsx,,,,,,,,,,,,,,0,0,0,0,,,,,21,0,21,0,,,,,,,,,,,,,,,,,,,,,,,,,,,,,,,,,,,,,,354.25105822600017,None,354.25105822600017,None,sub-02,26/07/2002,2: Female,15/07/2023,001,1: right,2023_Jul_15_1222,[FINAL]_fmri_multiplication,2021.2.3,59.64567557967755
block1.xlsx,,,,,,,,,,,,,,0,0,0,0,,,,,22,0,22,0,,,,,,,,,,,,,,,,,,,,,,,,,,,,,,,,,,,,,,355.24991262599906,None,355.24991262599906,None,sub-02,26/07/2002,2: Female,15/07/2023,001,1: right,2023_Jul_15_1222,[FINAL]_fmri_multiplication,2021.2.3,59.64567557967755
block1.xlsx,,,,,,,,,,,,,,0,0,0,0,,,,,23,0,23,0,,,,,,,,,,,,,,,,,,,,,,,,,,,,,,,,,,,,,,356.2513613109986,None,356.2513613109986,None,sub-02,26/07/2002,2: Female,15/07/2023,001,1: right,2023_Jul_15_1222,[FINAL]_fmri_multiplication,2021.2.3,59.64567557967755
block1.xlsx,,,,,,,,,,,,,,0,0,0,0,,,,,24,0,24,0,,,,,,,,,,,,,,,,,,,,,,,,,,,,,,,,,,,,,,357.2514958310003,None,357.2514958310003,None,sub-02,26/07/2002,2: Female,15/07/2023,001,1: right,2023_Jul_15_1222,[FINAL]_fmri_multiplication,2021.2.3,59.64567557967755
block1.xlsx,,,,,,,,,,,,,,0,0,0,0,,,,,25,0,25,0,,,,,,,,,,,,,,,,,,,,,,,,,,,,,,,,,,,,,,358.2514652329992,None,358.2514652329992,None,sub-02,26/07/2002,2: Female,15/07/2023,001,1: right,2023_Jul_15_1222,[FINAL]_fmri_multiplication,2021.2.3,59.64567557967755
block1.xlsx,,,,,,,,,,,,,,0,0,0,0,,,,,26,0,26,0,,,,,,,,,,,,,,,,,,,,,,,,,,,,,,,,,,,,,,359.2511616109987,None,359.2511616109987,None,sub-02,26/07/2002,2: Female,15/07/2023,001,1: right,2023_Jul_15_1222,[FINAL]_fmri_multiplication,2021.2.3,59.64567557967755
block1.xlsx,,,,,,,,,,,,,,0,0,0,0,,,,,27,0,27,0,,,,,,,,,,,,,,,,,,,,,,,,,,,,,,,,,,,,,,360.25135560299896,None,360.25135560299896,None,sub-02,26/07/2002,2: Female,15/07/2023,001,1: right,2023_Jul_15_1222,[FINAL]_fmri_multiplication,2021.2.3,59.64567557967755
block1.xlsx,,,,,,,,,,,,,,0,0,0,0,,,,,28,0,28,0,,,,,,,,,,,,,,,,,,,,,,,,,,,,,,,,,,,,,,361.2495731910003,None,361.2495731910003,None,sub-02,26/07/2002,2: Female,15/07/2023,001,1: right,2023_Jul_15_1222,[FINAL]_fmri_multiplication,2021.2.3,59.64567557967755
block1.xlsx,,,,,,,,,,,,,,0,0,0,0,,,,,29,0,29,0,,,,,,,,,,,,,,,,,,,,,,,,,,,,,,,,,,,,,,362.25135559499904,None,362.25135559499904,None,sub-02,26/07/2002,2: Female,15/07/2023,001,1: right,2023_Jul_15_1222,[FINAL]_fmri_multiplication,2021.2.3,59.64567557967755
block1.xlsx,,,,,,,,,,,,,,0,0,0,0,,,,,,,,,,,,,,,,,,,,,,,,,,,,,,,,,,,,,,,,,,,,,,,,,,sub-02,26/07/2002,2: Female,15/07/2023,001,1: right,2023_Jul_15_1222,[FINAL]_fmri_multiplication,2021.2.3,59.64567557967755
block2.xlsx,10,7.5,3.4,3 x 4,15,9,3 x 4 = 15,small-sized_high-interference,small-sized,high-interference,10,IncorrectRESP,d,0,1,1,1,0,0,0,0,,,,,,,,,,,,,363.2524170050001,None,373.26411892299984,None,373.7518672419992,None,375.7514039489997,None,376.5019599039988,None,376.7534902489988,None,376.7534902489988,None,a,0,0.5061570329999086,376.7534902489988,None,377.2844680749986,None,377.2844680749986,None,d,0.26320055299947853,377.2844680749986,None,377.5681264809991,None,,,,,sub-02,26/07/2002,2: Female,15/07/2023,001,1: right,2023_Jul_15_1222,[FINAL]_fmri_multiplication,2021.2.3,59.64567557967755
block2.xlsx,20.9,7.5,7,9 x 5,40,15,9 x 5 = 40,large-sized_low-interference,large-sized,low-interference,6,IncorrectRESP,d,0,1,1,1,0,1,1,1,,,,,,,,,,,,,,,380.96859298100026,None,381.46664999399945,None,383.46815580600014,None,384.2181590459986,None,384.46793063400037,None,384.46793063400037,None,a,0,0.4795980580001924,384.46793063400037,None,384.96760957100014,None,384.96760957100014,None,d,0.25995373300065694,384.96760957100014,None,385.2510811299999,None,,,,,sub-02,26/07/2002,2: Female,15/07/2023,001,1: right,2023_Jul_15_1222,[FINAL]_fmri_multiplication,2021.2.3,59.64567557967755
block2.xlsx,35.4,7.5,6.6,6 x 4,24,10,6 x 4 = 24,small-sized_high-interference,small-sized,high-interference,12,CorrectRESP,a,0,1,1,1,0,2,2,2,,,,,,,,,,,,,,,392.25163150799926,None,392.75146951399984,None,394.75101764399915,None,395.50120603899995,None,395.75266688400006,None,395.75266688400006,None,d,0,0.4748896020009852,395.75266688400006,None,396.2510698819988,None,396.2510698819988,None,d,0.24855542800105468,396.2510698819988,None,396.517771,None,,,,,sub-02,26/07/2002,2: Female,15/07/2023,001,1: right,2023_Jul_15_1222,[FINAL]_fmri_multiplication,2021.2.3,59.64567557967755
block2.xlsx,49.5,7.5,12,7 x 6,42,23,7 x 6 = 42,large-sized_high-interference,large-sized,high-interference,22,CorrectRESP,a,0,1,1,1,0,3,3,3,,,,,,,,,,,,,,,403.1179473430002,None,403.6188600869991,None,405.6346591,None,406.3850242009994,None,406.63523077599893,None,406.63523077599893,None,d,0,0.40033068299999286,406.63523077599893,None,407.06801648299916,None,407.06801648299916,None,d,0.24760146500011615,407.06801648299916,None,407.33461413799887,None,,,,,sub-02,26/07/2002,2: Female,15/07/2023,001,1: right,2023_Jul_15_1222,[FINAL]_fmri_multiplication,2021.2.3,59.64567557967755
block2.xlsx,69,7.5,4.9,6 x 2,12,6,6 x 2 = 12,small-sized_low-interference,small-sized,low-interference,3,CorrectRESP,a,0,1,1,1,0,4,4,4,,,,,,,,,,,,,,,419.3345113659998,None,419.8347221219992,None,421.83495654000035,None,422.5850730919992,None,422.8350114349996,None,422.8350114349996,None,d,0,0.44055035800010955,422.8350114349996,None,423.30022280999947,None,423.30022280999947,None,d,0.23140181899907475,423.30022280999947,None,423.55093295499864,None,,,,,sub-02,26/07/2002,2: Female,15/07/2023,001,1: right,2023_Jul_15_1222,[FINAL]_fmri_multiplication,2021.2.3,59.64567557967755
block2.xlsx,81.4,7.5,6.6,4 x 9,32,20,4 x 9 = 32,large-sized_high-interference,large-sized,high-interference,9,IncorrectRESP,d,0,1,1,1,0,5,5,5,,,,,,,,,,,,,,,428.45134614699964,None,428.9511915639996,None,430.95152260099894,None,431.70100579799873,None,431.95140430799984,None,431.95140430799984,None,a,0,0.43613140500019654,431.95140430799984,None,432.41792056399936,None,432.41792056399936,None,d,0.1776646839989553,432.41792056399936,None,432.61770053799955,None,,,,,sub-02,26/07/2002,2: Female,15/07/2023,001,1: right,2023_Jul_15_1222,[FINAL]_fmri_multiplication,2021.2.3,59.64567557967755
block2.xlsx,95.5,7.5,2.6,5 x 5,30,3,5 x 5 = 30,small-sized_low-interference,small-sized,low-interference,3,IncorrectRESP,d,0,1,1,1,0,6,6,6,,,,,,,,,,,,,,,439.2181685729993,None,439.7186362749999,None,441.7181842629998,None,442.4684172999987,None,442.7183108999998,None,442.7183108999998,None,a,0,0.7333589270001539,442.7183108999998,None,443.4686988430003,None,443.4686988430003,None,d,0.2150167510008032,443.4686988430003,None,443.70147001499936,None,,,,,sub-02,26/07/2002,2: Female,15/07/2023,001,1: right,2023_Jul_15_1222,[FINAL]_fmri_multiplication,2021.2.3,59.64567557967755
block2.xlsx,105.6,7.5,3.7,8 x 4,32,24,8 x 4 = 32,large-sized_high-interference,large-sized,high-interference,25,CorrectRESP,a,0,1,1,1,0,7,7,7,,,,,,,,,,,,,,,446.3019401490001,None,446.80199898299907,None,448.8019329,None,449.5519875,None,449.8018104919993,None,449.8018104919993,None,d,0,0.35379024500070955,449.8018104919993,None,450.1851957,None,450.1851957,None,d,0.19435684999916703,450.1851957,None,450.4013279989995,None,,,,,sub-02,26/07/2002,2: Female,15/07/2023,001,1: right,2023_Jul_15_1222,[FINAL]_fmri_multiplication,2021.2.3,59.64567557967755
block2.xlsx,116.8,7.5,3.1,2 x 9,16,2,2 x 9 = 16,small-sized_low-interference,small-sized,low-interference,7,IncorrectRESP,d,0,1,1,1,0,8,8,8,,,,,,,,,,,,,,,454.1010431,None,454.60116038699925,None,456.60167029699915,None,457.35149491799893,None,457.6017116259991,None,457.6017116259991,None,a,0,0.48991894900063926,457.6017116259991,None,458.1178347,None,458.1178347,None,d,0.11770989099932194,458.1178347,None,458.2677506740001,None,,,,,sub-02,26/07/2002,2: Female,15/07/2023,001,1: right,2023_Jul_15_1222,[FINAL]_fmri_multiplication,2021.2.3,59.64567557967755
block2.xlsx,127.4,7.5,12.2,5 x 8,45,21,5 x 8 = 45,large-sized_high-interference,large-sized,high-interference,9,IncorrectRESP,d,0,1,1,1,0,9,9,9,,,,,,,,,,,,,,,461.36821546099964,None,461.86789560099896,None,463.86813901499954,None,464.61827407799865,None,464.86803835499995,None,464.86803835499995,None,a,0,0.48757527400084655,464.86803835499995,None,465.3845020429999,None,465.3845020429999,None,d,0.24304130500058818,465.3845020429999,None,465.6510305749998,None,,,,,sub-02,26/07/2002,2: Female,15/07/2023,001,1: right,2023_Jul_15_1222,[FINAL]_fmri_multiplication,2021.2.3,59.64567557967755
block2.xlsx,147.1,7.5,13.3,6 x 6,30,13,6 x 6 = 30,large-sized_low-interference,large-sized,low-interference,4,IncorrectRESP,d,0,1,1,1,0,10,10,10,,,,,,,,,,,,,,,477.8516472599986,None,478.36893699199936,None,480.3685977219993,None,481.11859800599996,None,481.3698618719991,None,481.3698618719991,None,a,0,0.44170723400020506,481.3698618719991,None,481.83484091900027,None,481.83484091900027,None,d,0.12075078099951497,481.83484091900027,None,481.9852513939986,None,,,,,sub-02,26/07/2002,2: Female,15/07/2023,001,1: right,2023_Jul_15_1222,[FINAL]_fmri_multiplication,2021.2.3,59.64567557967755
block2.xlsx,167.9,7.5,2.8,7 x 3,21,11,7 x 3 = 21,small-sized_high-interference,small-sized,high-interference,13,CorrectRESP,a,0,1,1,1,0,11,11,11,,,,,,,,,,,,,,,495.28426490699894,None,495.78365606199986,None,497.7848618480002,None,498.53486569399865,None,498.7833260119987,None,498.7833260119987,None,d,0,0.45219835600073566,498.7833260119987,None,499.2666140799993,None,499.2666140799993,None,d,0.17690562,499.2666140799993,None,499.4682706579988,None,,,,,sub-02,26/07/2002,2: Female,15/07/2023,001,1: right,2023_Jul_15_1222,[FINAL]_fmri_multiplication,2021.2.3,59.64567557967755
block2.xlsx,178.2,7.5,3.4,8 x 7,56,22,8 x 7 = 56,large-sized_high-interference,large-sized,high-interference,9,CorrectRESP,a,0,1,1,1,0,12,12,12,,,,,,,,,,,,,,,502.2681942069994,None,502.7679694569997,None,504.76805228899866,None,505.5179423,None,505.76856734899957,None,505.76856734899957,None,d,0,0.507081277,505.76856734899957,None,506.3008964599994,None,506.3008964599994,None,d,0.14263082499928714,506.3008964599994,None,506.4660909739996,None,,,,,sub-02,26/07/2002,2: Female,15/07/2023,001,1: right,2023_Jul_15_1222,[FINAL]_fmri_multiplication,2021.2.3,59.64567557967755
block2.xlsx,189.1,7.5,3.9,3 x 8,24,12,3 x 8 = 24,small-sized_high-interference,small-sized,high-interference,13,CorrectRESP,a,0,1,1,1,0,13,13,13,,,,,,,,,,,,,,,509.86824955299926,None,510.36817607299963,None,512.3670855839991,None,513.1183416610002,None,513.3703512559987,None,513.3703512559987,None,d,0,0.4973625849997916,513.3703512559987,None,513.8850346599993,None,513.8850346599993,None,d,0.1986867000014172,513.8850346599993,None,514.1016020829993,None,,,,,sub-02,26/07/2002,2: Female,15/07/2023,001,1: right,2023_Jul_15_1222,[FINAL]_fmri_multiplication,2021.2.3,59.64567557967755
block2.xlsx,200.5,7.5,2,5 x 6,36,14,5 x 6 = 36,large-sized_low-interference,large-sized,low-interference,6,IncorrectRESP,d,0,1,1,1,0,14,14,14,,,,,,,,,,,,,,,518.0018591629996,None,518.5016463100001,None,520.5013895579996,None,521.2519516579996,None,521.5018716119994,None,521.5018716119994,None,a,0,0.5016639360001136,521.5018716119994,None,522.0352846699989,None,522.0352846699989,None,d,0.1842805820015201,522.0352846699989,None,522.2517247129999,None,,,,,sub-02,26/07/2002,2: Female,15/07/2023,001,1: right,2023_Jul_15_1222,[FINAL]_fmri_multiplication,2021.2.3,59.64567557967755
block2.xlsx,210,7.5,8.2,7 x 2,12,1,7 x 2 = 12,small-sized_low-interference,small-sized,low-interference,4,IncorrectRESP,d,0,1,1,1,0,15,15,15,,,,,,,,,,,,,,,524.2515119529999,None,524.7512631649988,None,526.7515402560002,None,527.5011355039987,None,527.7504843549996,None,527.7504843549996,None,a,0,0.4370209740009159,527.7504843549996,None,528.2180552419995,None,528.2180552419995,None,d,0.20147604900012084,528.2180552419995,None,528.4514515749997,None,,,,,sub-02,26/07/2002,2: Female,15/07/2023,001,1: right,2023_Jul_15_1222,[FINAL]_fmri_multiplication,2021.2.3,59.64567557967755
block2.xlsx,225.7,7.5,6.5,9 x 9,81,16,9 x 9 = 81,large-sized_low-interference,large-sized,low-interference,6,CorrectRESP,a,0,1,1,1,0,16,16,16,,,,,,,,,,,,,,,536.6514143639997,None,537.1511948059997,None,539.1514009009989,None,539.9012137,None,540.1513708009988,None,540.1513708009988,None,d,0,0.4361951479986601,540.1513708009988,None,540.6179233,None,540.6179233,None,d,0.17767290099982347,540.6179233,None,540.8180846059986,None,,,,,sub-02,26/07/2002,2: Female,15/07/2023,001,1: right,2023_Jul_15_1222,[FINAL]_fmri_multiplication,2021.2.3,59.64567557967755
block2.xlsx,239.7,7.5,6.2,4 x 5,16,8,4 x 5 = 16,small-sized_high-interference,small-sized,high-interference,8,IncorrectRESP,d,0,1,1,1,0,17,17,17,,,,,,,,,,,,,,,547.3180669649992,None,547.8185495750004,None,549.8186030329998,None,550.5686231130003,None,550.8193288530001,None,550.8193288530001,None,a,0,0.43220723000013095,550.8193288530001,None,551.2849413499989,None,551.2849413499989,None,d,0.17470089000016742,551.2849413499989,None,551.4850631609988,None,,,,,sub-02,26/07/2002,2: Female,15/07/2023,001,1: right,2023_Jul_15_1222,[FINAL]_fmri_multiplication,2021.2.3,59.64567557967755
block2.xlsx,253.4,7.5,11.8,8 x 2,16,5,8 x 2 = 16,small-sized_low-interference,small-sized,low-interference,7,CorrectRESP,a,0,1,1,1,0,18,18,18,,,,,,,,,,,,,,,557.6848871759994,None,558.1848953379995,None,560.1848169269997,None,560.9347404090004,None,561.1834248239993,None,561.1834248239993,None,d,0,0.372088641,561.1834248239993,None,561.5847972680003,None,561.5847972680003,None,d,0.20275068699993426,561.5847972680003,None,561.8183497439986,None,,,,,sub-02,26/07/2002,2: Female,15/07/2023,001,1: right,2023_Jul_15_1222,[FINAL]_fmri_multiplication,2021.2.3,59.64567557967755
block2.xlsx,272.7,7.5,3.7,7 x 5,35,17,7 x 5 = 35,large-sized_low-interference,large-sized,low-interference,7,CorrectRESP,a,0,1,1,1,0,19,19,19,,,,,,,,,,,,,,,573.6180357729991,None,574.1181496829995,None,576.1180781269995,None,576.8676848399991,None,577.1181668789995,None,577.1181668789995,None,d,0,0.4775072079992242,577.1181668789995,None,577.6176485719989,None,577.6176485719989,None,d,0.2179193629999645,577.6176485719989,None,577.8677454199988,None,,,,,sub-02,26/07/2002,2: Female,15/07/2023,001,1: right,2023_Jul_15_1222,[FINAL]_fmri_multiplication,2021.2.3,59.64567557967755
block2.xlsx,283.9,7.5,6,6 x 3,15,7,6 x 3 = 15,small-sized_high-interference,small-sized,high-interference,8,IncorrectRESP,d,0,1,1,1,0,20,20,20,,,,,,,,,,,,,,,581.5678331219988,None,582.0679874139987,None,584.0650840769995,None,584.8065519499996,None,585.0536143569989,None,585.0536143569989,None,a,0,0.3899190500014811,585.0536143569989,None,585.4681413599992,None,585.4681413599992,None,d,0.1914507279998361,585.4681413599992,None,585.6849217159997,None,,,,,sub-02,26/07/2002,2: Female,15/07/2023,001,1: right,2023_Jul_15_1222,[FINAL]_fmri_multiplication,2021.2.3,59.64567557967755
block2.xlsx,297.4,7.5,6.1,9 x 3,24,19,9 x 3 = 24,large-sized_high-interference,large-sized,high-interference,9,IncorrectRESP,d,0,1,1,1,0,21,21,21,,,,,,,,,,,,,,,591.6851007669993,None,592.1851785489998,None,594.1845563019997,None,594.9350573,None,595.1844365319994,None,595.1844365319994,None,a,0,0.4591024749988719,595.1844365319994,None,595.6677902049996,None,595.6677902049996,None,d,0.16772314199988614,595.6677902049996,None,595.8681903220004,None,,,,,sub-02,26/07/2002,2: Female,15/07/2023,001,1: right,2023_Jul_15_1222,[FINAL]_fmri_multiplication,2021.2.3,59.64567557967755
block2.xlsx,311,7.5,5.1,4 x 4,16,4,4 x 4 = 16,small-sized_low-interference,small-sized,low-interference,5,CorrectRESP,a,0,1,1,1,0,22,22,22,,,,,,,,,,,,,,,601.9680881,None,602.4688621189998,None,604.4682191,None,605.2181918200004,None,605.4679946,None,605.4679946,None,d,0,0.32757844800107705,605.4679946,None,605.8171667429997,None,605.8171667429997,None,d,0.16240297200056375,605.8171667429997,None,606.0006634199999,None,,,,,sub-02,26/07/2002,2: Female,15/07/2023,001,1: right,2023_Jul_15_1222,[FINAL]_fmri_multiplication,2021.2.3,59.64567557967755
block2.xlsx,323.6,7.5,3.9,7 x 7,49,18,7 x 7 = 49,large-sized_low-interference,large-sized,low-interference,7,CorrectRESP,a,0,1,1,1,0,23,23,23,,,,,,,,,,,,,,,611.1012420379993,None,611.6014036289998,None,613.6011093409998,None,614.3514880570001,None,614.6015421669999,None,614.6015421669999,None,d,0,0.4260167150005145,614.6015421669999,None,615.0511557789996,None,615.0511557789996,None,d,0.17640793200007465,615.0511557789996,None,615.2511428839989,None,,,,,sub-02,26/07/2002,2: Female,15/07/2023,001,1: right,2023_Jul_15_1222,[FINAL]_fmri_multiplication,2021.2.3,59.64567557967755
block2.xlsx,,,,,,,,,,,,,,0,1,1,1,,,,,0,0,0,0,,,,,,,,,,,,,,,,,,,,,,,,,,,,,,,,,,,,,,619.1528201469991,None,619.1528201469991,None,sub-02,26/07/2002,2: Female,15/07/2023,001,1: right,2023_Jul_15_1222,[FINAL]_fmri_multiplication,2021.2.3,59.64567557967755
block2.xlsx,,,,,,,,,,,,,,0,1,1,1,,,,,1,0,1,0,,,,,,,,,,,,,,,,,,,,,,,,,,,,,,,,,,,,,,620.1527997630001,None,620.1527997630001,None,sub-02,26/07/2002,2: Female,15/07/2023,001,1: right,2023_Jul_15_1222,[FINAL]_fmri_multiplication,2021.2.3,59.64567557967755
block2.xlsx,,,,,,,,,,,,,,0,1,1,1,,,,,2,0,2,0,,,,,,,,,,,,,,,,,,,,,,,,,,,,,,,,,,,,,,621.1521131209993,None,621.1521131209993,None,sub-02,26/07/2002,2: Female,15/07/2023,001,1: right,2023_Jul_15_1222,[FINAL]_fmri_multiplication,2021.2.3,59.64567557967755
block2.xlsx,,,,,,,,,,,,,,0,1,1,1,,,,,3,0,3,0,,,,,,,,,,,,,,,,,,,,,,,,,,,,,,,,,,,,,,622.1524995079999,None,622.1524995079999,None,sub-02,26/07/2002,2: Female,15/07/2023,001,1: right,2023_Jul_15_1222,[FINAL]_fmri_multiplication,2021.2.3,59.64567557967755
block2.xlsx,,,,,,,,,,,,,,0,1,1,1,,,,,4,0,4,0,,,,,,,,,,,,,,,,,,,,,,,,,,,,,,,,,,,,,,623.1527401629992,None,623.1527401629992,None,sub-02,26/07/2002,2: Female,15/07/2023,001,1: right,2023_Jul_15_1222,[FINAL]_fmri_multiplication,2021.2.3,59.64567557967755
block2.xlsx,,,,,,,,,,,,,,0,1,1,1,,,,,5,0,5,0,,,,,,,,,,,,,,,,,,,,,,,,,,,,,,,,,,,,,,624.1527731079987,None,624.1527731079987,None,sub-02,26/07/2002,2: Female,15/07/2023,001,1: right,2023_Jul_15_1222,[FINAL]_fmri_multiplication,2021.2.3,59.64567557967755
block2.xlsx,,,,,,,,,,,,,,0,1,1,1,,,,,6,0,6,0,,,,,,,,,,,,,,,,,,,,,,,,,,,,,,,,,,,,,,625.1527198959993,None,625.1527198959993,None,sub-02,26/07/2002,2: Female,15/07/2023,001,1: right,2023_Jul_15_1222,[FINAL]_fmri_multiplication,2021.2.3,59.64567557967755
block2.xlsx,,,,,,,,,,,,,,0,1,1,1,,,,,7,0,7,0,,,,,,,,,,,,,,,,,,,,,,,,,,,,,,,,,,,,,,626.1527227329989,None,626.1527227329989,None,sub-02,26/07/2002,2: Female,15/07/2023,001,1: right,2023_Jul_15_1222,[FINAL]_fmri_multiplication,2021.2.3,59.64567557967755
block2.xlsx,,,,,,,,,,,,,,0,1,1,1,,,,,8,0,8,0,,,,,,,,,,,,,,,,,,,,,,,,,,,,,,,,,,,,,,627.1528378459989,None,627.1528378459989,None,sub-02,26/07/2002,2: Female,15/07/2023,001,1: right,2023_Jul_15_1222,[FINAL]_fmri_multiplication,2021.2.3,59.64567557967755
block2.xlsx,,,,,,,,,,,,,,0,1,1,1,,,,,9,0,9,0,,,,,,,,,,,,,,,,,,,,,,,,,,,,,,,,,,,,,,628.1511897820001,None,628.1511897820001,None,sub-02,26/07/2002,2: Female,15/07/2023,001,1: right,2023_Jul_15_1222,[FINAL]_fmri_multiplication,2021.2.3,59.64567557967755
block2.xlsx,,,,,,,,,,,,,,0,1,1,1,,,,,10,0,10,0,,,,,,,,,,,,,,,,,,,,,,,,,,,,,,,,,,,,,,629.1510518359992,None,629.1510518359992,None,sub-02,26/07/2002,2: Female,15/07/2023,001,1: right,2023_Jul_15_1222,[FINAL]_fmri_multiplication,2021.2.3,59.64567557967755
block2.xlsx,,,,,,,,,,,,,,0,1,1,1,,,,,11,0,11,0,,,,,,,,,,,,,,,,,,,,,,,,,,,,,,,,,,,,,,630.1513830839995,None,630.1513830839995,None,sub-02,26/07/2002,2: Female,15/07/2023,001,1: right,2023_Jul_15_1222,[FINAL]_fmri_multiplication,2021.2.3,59.64567557967755
block2.xlsx,,,,,,,,,,,,,,0,1,1,1,,,,,12,0,12,0,,,,,,,,,,,,,,,,,,,,,,,,,,,,,,,,,,,,,,631.1513121799999,None,631.1513121799999,None,sub-02,26/07/2002,2: Female,15/07/2023,001,1: right,2023_Jul_15_1222,[FINAL]_fmri_multiplication,2021.2.3,59.64567557967755
block2.xlsx,,,,,,,,,,,,,,0,1,1,1,,,,,13,0,13,0,,,,,,,,,,,,,,,,,,,,,,,,,,,,,,,,,,,,,,632.1498377930002,None,632.1498377930002,None,sub-02,26/07/2002,2: Female,15/07/2023,001,1: right,2023_Jul_15_1222,[FINAL]_fmri_multiplication,2021.2.3,59.64567557967755
block2.xlsx,,,,,,,,,,,,,,0,1,1,1,,,,,14,0,14,0,,,,,,,,,,,,,,,,,,,,,,,,,,,,,,,,,,,,,,633.1512110049989,633.1512110049989,633.1512110049989,633.1512110049989,sub-02,26/07/2002,2: Female,15/07/2023,001,1: right,2023_Jul_15_1222,[FINAL]_fmri_multiplication,2021.2.3,59.64567557967755
block2.xlsx,,,,,,,,,,,,,,0,1,1,1,,,,,15,0,15,0,,,,,,,,,,,,,,,,,,,,,,,,,,,,,,,,,,,,,,634.1522229169987,634.1522229169987,634.1522229169987,634.1522229169987,sub-02,26/07/2002,2: Female,15/07/2023,001,1: right,2023_Jul_15_1222,[FINAL]_fmri_multiplication,2021.2.3,59.64567557967755
block2.xlsx,,,,,,,,,,,,,,0,1,1,1,,,,,16,0,16,0,,,,,,,,,,,,,,,,,,,,,,,,,,,,,,,,,,,,,,635.1519892119995,None,635.1519892119995,None,sub-02,26/07/2002,2: Female,15/07/2023,001,1: right,2023_Jul_15_1222,[FINAL]_fmri_multiplication,2021.2.3,59.64567557967755
block2.xlsx,,,,,,,,,,,,,,0,1,1,1,,,,,17,0,17,0,,,,,,,,,,,,,,,,,,,,,,,,,,,,,,,,,,,,,,636.1499902790001,None,636.1499902790001,None,sub-02,26/07/2002,2: Female,15/07/2023,001,1: right,2023_Jul_15_1222,[FINAL]_fmri_multiplication,2021.2.3,59.64567557967755
block2.xlsx,,,,,,,,,,,,,,0,1,1,1,,,,,18,0,18,0,,,,,,,,,,,,,,,,,,,,,,,,,,,,,,,,,,,,,,637.1523466069993,None,637.1523466069993,None,sub-02,26/07/2002,2: Female,15/07/2023,001,1: right,2023_Jul_15_1222,[FINAL]_fmri_multiplication,2021.2.3,59.64567557967755
block2.xlsx,,,,,,,,,,,,,,0,1,1,1,,,,,19,0,19,0,,,,,,,,,,,,,,,,,,,,,,,,,,,,,,,,,,,,,,638.1519250009987,None,638.1519250009987,None,sub-02,26/07/2002,2: Female,15/07/2023,001,1: right,2023_Jul_15_1222,[FINAL]_fmri_multiplication,2021.2.3,59.64567557967755
block2.xlsx,,,,,,,,,,,,,,0,1,1,1,,,,,20,0,20,0,,,,,,,,,,,,,,,,,,,,,,,,,,,,,,,,,,,,,,639.1516714469999,None,639.1516714469999,None,sub-02,26/07/2002,2: Female,15/07/2023,001,1: right,2023_Jul_15_1222,[FINAL]_fmri_multiplication,2021.2.3,59.64567557967755
block2.xlsx,,,,,,,,,,,,,,0,1,1,1,,,,,21,0,21,0,,,,,,,,,,,,,,,,,,,,,,,,,,,,,,,,,,,,,,640.1522382309995,None,640.1522382309995,None,sub-02,26/07/2002,2: Female,15/07/2023,001,1: right,2023_Jul_15_1222,[FINAL]_fmri_multiplication,2021.2.3,59.64567557967755
block2.xlsx,,,,,,,,,,,,,,0,1,1,1,,,,,22,0,22,0,,,,,,,,,,,,,,,,,,,,,,,,,,,,,,,,,,,,,,641.1511320989994,None,641.1511320989994,None,sub-02,26/07/2002,2: Female,15/07/2023,001,1: right,2023_Jul_15_1222,[FINAL]_fmri_multiplication,2021.2.3,59.64567557967755
block2.xlsx,,,,,,,,,,,,,,0,1,1,1,,,,,23,0,23,0,,,,,,,,,,,,,,,,,,,,,,,,,,,,,,,,,,,,,,642.1512261829994,642.1512261829994,642.1512261829994,642.1512261829994,sub-02,26/07/2002,2: Female,15/07/2023,001,1: right,2023_Jul_15_1222,[FINAL]_fmri_multiplication,2021.2.3,59.64567557967755
block2.xlsx,,,,,,,,,,,,,,0,1,1,1,,,,,24,0,24,0,,,,,,,,,,,,,,,,,,,,,,,,,,,,,,,,,,,,,,643.1511924089991,None,643.1511924089991,None,sub-02,26/07/2002,2: Female,15/07/2023,001,1: right,2023_Jul_15_1222,[FINAL]_fmri_multiplication,2021.2.3,59.64567557967755
block2.xlsx,,,,,,,,,,,,,,0,1,1,1,,,,,25,0,25,0,,,,,,,,,,,,,,,,,,,,,,,,,,,,,,,,,,,,,,644.1512420939998,None,644.1512420939998,None,sub-02,26/07/2002,2: Female,15/07/2023,001,1: right,2023_Jul_15_1222,[FINAL]_fmri_multiplication,2021.2.3,59.64567557967755
block2.xlsx,,,,,,,,,,,,,,0,1,1,1,,,,,26,0,26,0,,,,,,,,,,,,,,,,,,,,,,,,,,,,,,,,,,,,,,645.1512035659998,None,645.1512035659998,None,sub-02,26/07/2002,2: Female,15/07/2023,001,1: right,2023_Jul_15_1222,[FINAL]_fmri_multiplication,2021.2.3,59.64567557967755
block2.xlsx,,,,,,,,,,,,,,0,1,1,1,,,,,27,0,27,0,,,,,,,,,,,,,,,,,,,,,,,,,,,,,,,,,,,,,,646.1514576609989,None,646.1514576609989,None,sub-02,26/07/2002,2: Female,15/07/2023,001,1: right,2023_Jul_15_1222,[FINAL]_fmri_multiplication,2021.2.3,59.64567557967755
block2.xlsx,,,,,,,,,,,,,,0,1,1,1,,,,,28,0,28,0,,,,,,,,,,,,,,,,,,,,,,,,,,,,,,,,,,,,,,647.1499914849992,647.1499914849992,647.1499914849992,647.1499914849992,sub-02,26/07/2002,2: Female,15/07/2023,001,1: right,2023_Jul_15_1222,[FINAL]_fmri_multiplication,2021.2.3,59.64567557967755
block2.xlsx,,,,,,,,,,,,,,0,1,1,1,,,,,29,0,29,0,,,,,,,,,,,,,,,,,,,,,,,,,,,,,,,,,,,,,,648.1512431599986,648.1512431599986,648.1512431599986,648.1512431599986,sub-02,26/07/2002,2: Female,15/07/2023,001,1: right,2023_Jul_15_1222,[FINAL]_fmri_multiplication,2021.2.3,59.64567557967755
block2.xlsx,,,,,,,,,,,,,,0,1,1,1,,,,,,,,,,,,,,,,,,,,,,,,,,,,,,,,,,,,,,,,,,,,,,,,,,sub-02,26/07/2002,2: Female,15/07/2023,001,1: right,2023_Jul_15_1222,[FINAL]_fmri_multiplication,2021.2.3,59.64567557967755
block3.xlsx,10,7.5,5.9,6 x 4,24,10,6 x 4 = 24,small-sized_high-interference,small-sized,high-interference,12,CorrectRESP,a,0,2,2,2,0,0,0,0,,,,,,,,,,,,,649.1528771939993,None,659.1776870960002,None,659.6524296,None,661.6518107,None,662.4019792549989,None,662.6536986769988,None,662.6536986769988,None,d,0,0.4299049239998567,662.6536986769988,None,663.1027880290003,None,663.1027880290003,None,d,0.22087355500116246,663.1027880290003,None,663.3516168,None,,,,,sub-02,26/07/2002,2: Female,15/07/2023,001,1: right,2023_Jul_15_1222,[FINAL]_fmri_multiplication,2021.2.3,59.64567557967755
block3.xlsx,23.4,7.5,2,6 x 6,30,13,6 x 6 = 30,large-sized_low-interference,large-sized,low-interference,4,IncorrectRESP,d,0,2,2,2,0,1,1,1,,,,,,,,,,,,,,,669.2515663,None,669.7512959759988,None,671.7514992739998,None,672.5013210689995,None,672.7514233479997,None,672.7514233479997,None,a,0,0.4921222979992308,672.7514233479997,None,673.2677778340003,None,673.2677778340003,None,d,0.22377684999992198,673.2677778340003,None,673.5164582939997,None,,,,,sub-02,26/07/2002,2: Female,15/07/2023,001,1: right,2023_Jul_15_1222,[FINAL]_fmri_multiplication,2021.2.3,59.64567557967755
block3.xlsx,32.9,7.5,3.2,2 x 9,18,2,2 x 9 = 18,small-sized_low-interference,small-sized,low-interference,7,CorrectRESP,a,0,2,2,2,0,2,2,2,,,,,,,,,,,,,,,675.5175647710003,None,676.0167000809997,None,678.0180614649998,None,678.7680247979988,None,679.0178287809995,None,679.0178287809995,None,d,0,0.4418071069994767,679.0178287809995,None,679.4842717129995,None,679.4842717129995,None,d,0.24737897799968778,679.4842717129995,None,679.7512830029991,None,,,,,sub-02,26/07/2002,2: Female,15/07/2023,001,1: right,2023_Jul_15_1222,[FINAL]_fmri_multiplication,2021.2.3,59.64567557967755
block3.xlsx,43.6,7.5,6,3 x 4,12,9,3 x 4 = 12,small-sized_high-interference,small-sized,high-interference,10,CorrectRESP,a,0,2,2,2,0,3,3,3,,,,,,,,,,,,,,,682.9514460150003,None,683.4525845,None,685.4682093369993,None,686.2182585749997,None,686.4674347950004,None,686.4674347950004,None,d,0,0.40817839200099115,686.4674347950004,None,686.9007983599986,None,686.9007983599986,None,d,0.24683364200063806,686.9007983599986,None,687.1678796670003,None,,,,,sub-02,26/07/2002,2: Female,15/07/2023,001,1: right,2023_Jul_15_1222,[FINAL]_fmri_multiplication,2021.2.3,59.64567557967755
block3.xlsx,57.1,7.5,13.3,7 x 5,40,17,7 x 5 = 40,large-sized_low-interference,large-sized,low-interference,7,IncorrectRESP,d,0,2,2,2,0,4,4,4,,,,,,,,,,,,,,,693.1685238159989,None,693.6675846719991,None,695.6684196,None,696.4185745859995,None,696.6686345540002,None,696.6686345540002,None,a,0,0.3990282180002396,696.6686345540002,None,697.0848830590003,None,697.0848830590003,None,d,0.25475915299830376,697.0848830590003,None,697.3685020789999,None,,,,,sub-02,26/07/2002,2: Female,15/07/2023,001,1: right,2023_Jul_15_1222,[FINAL]_fmri_multiplication,2021.2.3,59.64567557967755
block3.xlsx,77.9,7.5,2,8 x 7,56,22,8 x 7 = 56,large-sized_high-interference,large-sized,high-interference,9,CorrectRESP,a,0,2,2,2,0,5,5,5,,,,,,,,,,,,,,,710.6681018599993,None,711.1669610419995,None,713.1681432079986,None,713.9178077969991,None,714.1687516639995,None,714.1687516639995,None,d,0,0.3948577299997851,714.1687516639995,None,714.5844047699993,None,714.5844047699993,None,d,0.20313332499972603,714.5844047699993,None,714.8181105519998,None,,,,,sub-02,26/07/2002,2: Female,15/07/2023,001,1: right,2023_Jul_15_1222,[FINAL]_fmri_multiplication,2021.2.3,59.64567557967755
block3.xlsx,87.4,7.5,2.6,9 x 9,81,16,9 x 9 = 81,large-sized_low-interference,large-sized,low-interference,6,CorrectRESP,a,0,2,2,2,0,6,6,6,,,,,,,,,,,,,,,716.8177177039997,None,717.3167855539996,None,719.3179509,None,720.0674522739992,None,720.3182907049995,None,720.3182907049995,None,d,0,0.46126527799970063,720.3182907049995,None,720.8048782919996,None,720.8048782919996,None,d,0.20666009399974428,720.8048782919996,None,721.0349901359987,None,,,,,sub-02,26/07/2002,2: Female,15/07/2023,001,1: right,2023_Jul_15_1222,[FINAL]_fmri_multiplication,2021.2.3,59.64567557967755
block3.xlsx,97.5,7.5,2.7,4 x 5,20,8,4 x 5 = 20,small-sized_high-interference,small-sized,high-interference,8,CorrectRESP,a,0,2,2,2,0,7,7,7,,,,,,,,,,,,,,,723.6505910659998,None,724.1505154879997,None,726.1517909180002,None,726.9017481459996,None,727.1520655059994,None,727.1520655059994,None,d,0,0.3235694569993939,727.1520655059994,None,727.5015507989992,None,727.5015507989992,None,d,0.19805061899933207,727.5015507989992,None,727.7181356229994,None,,,,,sub-02,26/07/2002,2: Female,15/07/2023,001,1: right,2023_Jul_15_1222,[FINAL]_fmri_multiplication,2021.2.3,59.64567557967755
block3.xlsx,107.7,7.5,8.4,9 x 3,24,19,9 x 3 = 24,large-sized_high-interference,large-sized,high-interference,9,IncorrectRESP,d,0,2,2,2,0,8,8,8,,,,,,,,,,,,,,,730.4187393,None,730.9182166310002,None,732.9164173499994,None,733.6682709979996,None,733.9178631019986,None,733.9178631019986,None,a,0,0.3896832270002051,733.9178631019986,None,734.3343470119999,None,734.3343470119999,None,d,0.2292138819993852,734.3343470119999,None,734.5843506,None,,,,,sub-02,26/07/2002,2: Female,15/07/2023,001,1: right,2023_Jul_15_1222,[FINAL]_fmri_multiplication,2021.2.3,59.64567557967755
block3.xlsx,123.6,7.5,2.2,9 x 5,45,15,9 x 5 = 45,large-sized_low-interference,large-sized,low-interference,6,CorrectRESP,a,0,2,2,2,0,9,9,9,,,,,,,,,,,,,,,742.9843648,None,743.4845470969994,None,745.4848067289986,None,746.235022,None,746.4843534409993,None,746.4843534409993,None,d,0,0.3912899019996985,746.4843534409993,None,746.9008647909995,None,746.9008647909995,None,d,0.25477639000018826,746.9008647909995,None,747.1848452189988,None,,,,,sub-02,26/07/2002,2: Female,15/07/2023,001,1: right,2023_Jul_15_1222,[FINAL]_fmri_multiplication,2021.2.3,59.64567557967755
block3.xlsx,133.3,7.5,9.7,4 x 4,16,4,4 x 4 = 16,small-sized_low-interference,small-sized,low-interference,5,CorrectRESP,a,0,2,2,2,0,10,10,10,,,,,,,,,,,,,,,749.3842618139988,None,749.8847422210001,None,751.8848458840002,None,752.6349494339993,None,752.8847963259996,None,752.8847963259996,None,d,0,0.4067099359999702,752.8847963259996,None,753.3168132029987,None,753.3168132029987,None,d,0.19887605599978997,753.3168132029987,None,753.5339874839992,None,,,,,sub-02,26/07/2002,2: Female,15/07/2023,001,1: right,2023_Jul_15_1222,[FINAL]_fmri_multiplication,2021.2.3,59.64567557967755
block3.xlsx,150.5,7.5,5.4,8 x 4,28,24,8 x 4 = 28,large-sized_high-interference,large-sized,high-interference,25,IncorrectRESP,d,0,2,2,2,0,11,11,11,,,,,,,,,,,,,,,763.2351631649999,None,763.7367206229992,None,765.7513829,None,766.5018133489993,None,766.7531164,None,766.7531164,None,a,0,0.45045081399985065,766.7531164,None,767.2353046689987,None,767.2353046689987,None,d,0.21635506900020118,767.2353046689987,None,767.4685559569989,None,,,,,sub-02,26/07/2002,2: Female,15/07/2023,001,1: right,2023_Jul_15_1222,[FINAL]_fmri_multiplication,2021.2.3,59.64567557967755
block3.xlsx,163.4,7.5,10.5,8 x 2,18,5,8 x 2 = 18,small-sized_low-interference,small-sized,low-interference,7,IncorrectRESP,d,0,2,2,2,0,12,12,12,,,,,,,,,,,,,,,772.8680814439995,None,773.3680455140002,None,775.3682993040002,None,776.1181836939995,None,776.3665438,None,776.3665438,None,a,0,0.4049659899992548,776.3665438,None,776.8014355,None,776.8014355,None,d,0.20218139099961263,776.8014355,None,777.0349936359999,None,,,,,sub-02,26/07/2002,2: Female,15/07/2023,001,1: right,2023_Jul_15_1222,[FINAL]_fmri_multiplication,2021.2.3,59.64567557967755
block3.xlsx,181.4,7.5,3.5,7 x 6,48,23,7 x 6 = 48,large-sized_high-interference,large-sized,high-interference,22,IncorrectRESP,d,0,2,2,2,0,13,13,13,,,,,,,,,,,,,,,787.5348135209988,None,788.0352293729993,None,790.0349179,None,790.7848809609986,None,791.0357069469992,None,791.0357069469992,None,a,0,0.5118334640010289,791.0357069469992,None,791.5678220350001,None,791.5678220350001,None,d,0.1638181899998017,791.5678220350001,None,791.7510917199997,None,,,,,sub-02,26/07/2002,2: Female,15/07/2023,001,1: right,2023_Jul_15_1222,[FINAL]_fmri_multiplication,2021.2.3,59.64567557967755
block3.xlsx,192.4,7.5,11.8,5 x 6,30,14,5 x 6 = 30,large-sized_low-interference,large-sized,low-interference,6,CorrectRESP,a,0,2,2,2,0,14,14,14,,,,,,,,,,,,,,,795.2487280869991,None,795.7425291649997,None,797.7519263470003,None,798.5016915010001,None,798.7522193,None,798.7522193,None,d,0,0.43533302799914964,798.7522193,None,799.2172048,None,799.2172048,None,d,0.22627865399954317,799.2172048,None,799.4684757199993,None,,,,,sub-02,26/07/2002,2: Female,15/07/2023,001,1: right,2023_Jul_15_1222,[FINAL]_fmri_multiplication,2021.2.3,59.64567557967755
block3.xlsx,211.7,7.5,3.7,4 x 9,36,20,4 x 9 = 36,large-sized_high-interference,large-sized,high-interference,9,CorrectRESP,a,0,2,2,2,0,15,15,15,,,,,,,,,,,,,,,811.2682287529988,None,811.7670077189996,None,813.7679741720003,None,814.5180266159987,None,814.7672486749998,None,814.7672486749998,None,d,0,0.4442795049999404,814.7672486749998,None,815.2344224150002,None,815.2344224150002,None,d,0.21713203499894007,815.2344224150002,None,815.4848164979994,None,,,,,sub-02,26/07/2002,2: Female,15/07/2023,001,1: right,2023_Jul_15_1222,[FINAL]_fmri_multiplication,2021.2.3,59.64567557967755
block3.xlsx,222.9,7.5,2.5,7 x 7,56,18,7 x 7 = 56,large-sized_low-interference,large-sized,low-interference,7,IncorrectRESP,d,0,2,2,2,0,16,16,16,,,,,,,,,,,,,,,819.1844008099997,None,819.6844181870001,None,821.6846835929991,None,822.4348429919992,None,822.6851422379987,None,822.6851422379987,None,a,0,0.40653835899865953,822.6851422379987,None,823.1182003100002,None,823.1182003100002,None,d,0.14947384599872748,823.1182003100002,None,823.2843382020001,None,,,,,sub-02,26/07/2002,2: Female,15/07/2023,001,1: right,2023_Jul_15_1222,[FINAL]_fmri_multiplication,2021.2.3,59.64567557967755
block3.xlsx,232.9,7.5,9,6 x 3,15,7,6 x 3 = 15,small-sized_high-interference,small-sized,high-interference,8,IncorrectRESP,d,0,2,2,2,0,17,17,17,,,,,,,,,,,,,,,825.7848980219987,None,826.2834409869993,None,828.2849432539988,None,829.0352122589993,None,829.2855882940003,None,829.2855882940003,None,a,0,0.4380394969994086,829.2855882940003,None,829.7518595290003,None,829.7518595290003,None,d,0.14772007099963957,829.7518595290003,None,829.9353284389999,None,,,,,sub-02,26/07/2002,2: Female,15/07/2023,001,1: right,2023_Jul_15_1222,[FINAL]_fmri_multiplication,2021.2.3,59.64567557967755
block3.xlsx,249.4,7.5,9.5,7 x 2,12,1,7 x 2 = 12,small-sized_low-interference,small-sized,low-interference,4,IncorrectRESP,d,0,2,2,2,0,18,18,18,,,,,,,,,,,,,,,838.9349149480004,None,839.4346067,None,841.4351383169997,None,842.1850568769987,None,842.4347473359994,None,842.4347473359994,None,a,0,0.4167976830012776,842.4347473359994,None,842.8847788410003,None,842.8847788410003,None,d,0.15075473900105862,842.8847788410003,None,843.0681197,None,,,,,sub-02,26/07/2002,2: Female,15/07/2023,001,1: right,2023_Jul_15_1222,[FINAL]_fmri_multiplication,2021.2.3,59.64567557967755
block3.xlsx,266.4,7.5,11.1,5 x 8,40,21,5 x 8 = 40,large-sized_high-interference,large-sized,high-interference,9,CorrectRESP,a,0,2,2,2,0,19,19,19,,,,,,,,,,,,,,,852.5681150869987,None,853.0680282,None,855.0680890469994,None,855.8181138189993,None,856.0678783309995,None,856.0678783309995,None,d,0,0.3516673329995683,856.0678783309995,None,856.4516189589995,None,856.4516189589995,None,d,0.16794969700094953,856.4516189589995,None,856.6512703769986,None,,,,,sub-02,26/07/2002,2: Female,15/07/2023,001,1: right,2023_Jul_15_1222,[FINAL]_fmri_multiplication,2021.2.3,59.64567557967755
block3.xlsx,285,7.5,3.8,3 x 8,21,12,3 x 8 = 21,small-sized_high-interference,small-sized,high-interference,13,IncorrectRESP,d,0,2,2,2,0,20,20,20,,,,,,,,,,,,,,,867.7515732699994,None,868.2519332,None,870.2519069319987,None,871.0019720929995,None,871.2518554,None,871.2518554,None,a,0,0.46387615099956747,871.2518554,None,871.7329869799996,None,871.7329869799996,None,d,0.20658956700026465,871.7329869799996,None,871.9685419329999,None,,,,,sub-02,26/07/2002,2: Female,15/07/2023,001,1: right,2023_Jul_15_1222,[FINAL]_fmri_multiplication,2021.2.3,59.64567557967755
block3.xlsx,296.3,7.5,11.2,5 x 5,25,3,5 x 5 = 25,small-sized_low-interference,small-sized,low-interference,3,CorrectRESP,a,0,2,2,2,0,21,21,21,,,,,,,,,,,,,,,875.7683531570001,None,876.2682353969994,None,878.2681965729989,None,879.0183485,None,879.2682065949994,None,879.2682065949994,None,d,0,0.33533733600052074,879.2682065949994,None,879.6348029290002,None,879.6348029290002,None,d,0.17676305799977854,879.6348029290002,None,879.8343986889995,None,,,,,sub-02,26/07/2002,2: Female,15/07/2023,001,1: right,2023_Jul_15_1222,[FINAL]_fmri_multiplication,2021.2.3,59.64567557967755
block3.xlsx,315,7.5,2.6,7 x 3,24,11,7 x 3 = 24,small-sized_high-interference,small-sized,high-interference,13,IncorrectRESP,d,0,2,2,2,0,22,22,22,,,,,,,,,,,,,,,891.0343883629994,None,891.5349775309987,None,893.5347071630003,None,894.2846607,None,894.5360774309993,None,894.5360774309993,None,a,0,0.42746645500119484,894.5360774309993,None,894.9843723979993,None,894.9843723979993,None,d,0.16317417500067677,894.9843723979993,None,895.1677545469993,None,,,,,sub-02,26/07/2002,2: Female,15/07/2023,001,1: right,2023_Jul_15_1222,[FINAL]_fmri_multiplication,2021.2.3,59.64567557967755
block3.xlsx,325.1,7.5,2.4,6 x 2,10,6,6 x 2 = 10,small-sized_low-interference,small-sized,low-interference,3,IncorrectRESP,d,0,2,2,2,0,23,23,23,,,,,,,,,,,,,,,897.7682802009986,None,898.2680254329989,None,900.2686640899992,None,901.0159160469993,None,901.2717333580003,None,901.2717333580003,None,a,0,0.48393493900039175,901.2717333580003,None,901.7840723070003,None,901.7840723070003,None,d,0.17141906500000914,901.7840723070003,None,901.9852876,None,,,,,sub-02,26/07/2002,2: Female,15/07/2023,001,1: right,2023_Jul_15_1222,[FINAL]_fmri_multiplication,2021.2.3,59.64567557967755
block3.xlsx,,,,,,,,,,,,,,0,2,2,2,,,,,0,0,0,0,,,,,,,,,,,,,,,,,,,,,,,,,,,,,,,,,,,,,,904.3860689239991,None,904.3860689239991,None,sub-02,26/07/2002,2: Female,15/07/2023,001,1: right,2023_Jul_15_1222,[FINAL]_fmri_multiplication,2021.2.3,59.64567557967755
block3.xlsx,,,,,,,,,,,,,,0,2,2,2,,,,,1,0,1,0,,,,,,,,,,,,,,,,,,,,,,,,,,,,,,,,,,,,,,905.3845612570003,905.3845612570003,905.3845612570003,905.3845612570003,sub-02,26/07/2002,2: Female,15/07/2023,001,1: right,2023_Jul_15_1222,[FINAL]_fmri_multiplication,2021.2.3,59.64567557967755
block3.xlsx,,,,,,,,,,,,,,0,2,2,2,,,,,2,0,2,0,,,,,,,,,,,,,,,,,,,,,,,,,,,,,,,,,,,,,,906.3863271459995,906.3863271459995,906.3863271459995,906.3863271459995,sub-02,26/07/2002,2: Female,15/07/2023,001,1: right,2023_Jul_15_1222,[FINAL]_fmri_multiplication,2021.2.3,59.64567557967755
block3.xlsx,,,,,,,,,,,,,,0,2,2,2,,,,,3,0,3,0,,,,,,,,,,,,,,,,,,,,,,,,,,,,,,,,,,,,,,907.4028350459994,None,907.4028350459994,None,sub-02,26/07/2002,2: Female,15/07/2023,001,1: right,2023_Jul_15_1222,[FINAL]_fmri_multiplication,2021.2.3,59.64567557967755
block3.xlsx,,,,,,,,,,,,,,0,2,2,2,,,,,4,0,4,0,,,,,,,,,,,,,,,,,,,,,,,,,,,,,,,,,,,,,,908.4018369059995,None,908.4018369059995,None,sub-02,26/07/2002,2: Female,15/07/2023,001,1: right,2023_Jul_15_1222,[FINAL]_fmri_multiplication,2021.2.3,59.64567557967755
block3.xlsx,,,,,,,,,,,,,,0,2,2,2,,,,,5,0,5,0,,,,,,,,,,,,,,,,,,,,,,,,,,,,,,,,,,,,,,909.4015089969998,None,909.4015089969998,None,sub-02,26/07/2002,2: Female,15/07/2023,001,1: right,2023_Jul_15_1222,[FINAL]_fmri_multiplication,2021.2.3,59.64567557967755
block3.xlsx,,,,,,,,,,,,,,0,2,2,2,,,,,6,0,6,0,,,,,,,,,,,,,,,,,,,,,,,,,,,,,,,,,,,,,,910.4015256860002,None,910.4015256860002,None,sub-02,26/07/2002,2: Female,15/07/2023,001,1: right,2023_Jul_15_1222,[FINAL]_fmri_multiplication,2021.2.3,59.64567557967755
block3.xlsx,,,,,,,,,,,,,,0,2,2,2,,,,,7,0,7,0,,,,,,,,,,,,,,,,,,,,,,,,,,,,,,,,,,,,,,911.4011709699989,None,911.4011709699989,None,sub-02,26/07/2002,2: Female,15/07/2023,001,1: right,2023_Jul_15_1222,[FINAL]_fmri_multiplication,2021.2.3,59.64567557967755
block3.xlsx,,,,,,,,,,,,,,0,2,2,2,,,,,8,0,8,0,,,,,,,,,,,,,,,,,,,,,,,,,,,,,,,,,,,,,,912.4012111,None,912.4012111,None,sub-02,26/07/2002,2: Female,15/07/2023,001,1: right,2023_Jul_15_1222,[FINAL]_fmri_multiplication,2021.2.3,59.64567557967755
block3.xlsx,,,,,,,,,,,,,,0,2,2,2,,,,,9,0,9,0,,,,,,,,,,,,,,,,,,,,,,,,,,,,,,,,,,,,,,913.4012920869991,None,913.4012920869991,None,sub-02,26/07/2002,2: Female,15/07/2023,001,1: right,2023_Jul_15_1222,[FINAL]_fmri_multiplication,2021.2.3,59.64567557967755
block3.xlsx,,,,,,,,,,,,,,0,2,2,2,,,,,10,0,10,0,,,,,,,,,,,,,,,,,,,,,,,,,,,,,,,,,,,,,,914.4017425589991,None,914.4017425589991,None,sub-02,26/07/2002,2: Female,15/07/2023,001,1: right,2023_Jul_15_1222,[FINAL]_fmri_multiplication,2021.2.3,59.64567557967755
block3.xlsx,,,,,,,,,,,,,,0,2,2,2,,,,,11,0,11,0,,,,,,,,,,,,,,,,,,,,,,,,,,,,,,,,,,,,,,915.3995636479995,None,915.3995636479995,None,sub-02,26/07/2002,2: Female,15/07/2023,001,1: right,2023_Jul_15_1222,[FINAL]_fmri_multiplication,2021.2.3,59.64567557967755
block3.xlsx,,,,,,,,,,,,,,0,2,2,2,,,,,12,0,12,0,,,,,,,,,,,,,,,,,,,,,,,,,,,,,,,,,,,,,,916.4013658389995,None,916.4013658389995,None,sub-02,26/07/2002,2: Female,15/07/2023,001,1: right,2023_Jul_15_1222,[FINAL]_fmri_multiplication,2021.2.3,59.64567557967755
block3.xlsx,,,,,,,,,,,,,,0,2,2,2,,,,,13,0,13,0,,,,,,,,,,,,,,,,,,,,,,,,,,,,,,,,,,,,,,917.4014035889995,None,917.4014035889995,None,sub-02,26/07/2002,2: Female,15/07/2023,001,1: right,2023_Jul_15_1222,[FINAL]_fmri_multiplication,2021.2.3,59.64567557967755
block3.xlsx,,,,,,,,,,,,,,0,2,2,2,,,,,14,0,14,0,,,,,,,,,,,,,,,,,,,,,,,,,,,,,,,,,,,,,,918.4014493510003,None,918.4014493510003,None,sub-02,26/07/2002,2: Female,15/07/2023,001,1: right,2023_Jul_15_1222,[FINAL]_fmri_multiplication,2021.2.3,59.64567557967755
block3.xlsx,,,,,,,,,,,,,,0,2,2,2,,,,,15,0,15,0,,,,,,,,,,,,,,,,,,,,,,,,,,,,,,,,,,,,,,919.4012548430001,None,919.4012548430001,None,sub-02,26/07/2002,2: Female,15/07/2023,001,1: right,2023_Jul_15_1222,[FINAL]_fmri_multiplication,2021.2.3,59.64567557967755
block3.xlsx,,,,,,,,,,,,,,0,2,2,2,,,,,16,0,16,0,,,,,,,,,,,,,,,,,,,,,,,,,,,,,,,,,,,,,,920.4008658429993,None,920.4008658429993,None,sub-02,26/07/2002,2: Female,15/07/2023,001,1: right,2023_Jul_15_1222,[FINAL]_fmri_multiplication,2021.2.3,59.64567557967755
block3.xlsx,,,,,,,,,,,,,,0,2,2,2,,,,,17,0,17,0,,,,,,,,,,,,,,,,,,,,,,,,,,,,,,,,,,,,,,921.4026215679987,None,921.4026215679987,None,sub-02,26/07/2002,2: Female,15/07/2023,001,1: right,2023_Jul_15_1222,[FINAL]_fmri_multiplication,2021.2.3,59.64567557967755
block3.xlsx,,,,,,,,,,,,,,0,2,2,2,,,,,18,0,18,0,,,,,,,,,,,,,,,,,,,,,,,,,,,,,,,,,,,,,,922.4015538879994,None,922.4015538879994,None,sub-02,26/07/2002,2: Female,15/07/2023,001,1: right,2023_Jul_15_1222,[FINAL]_fmri_multiplication,2021.2.3,59.64567557967755
block3.xlsx,,,,,,,,,,,,,,0,2,2,2,,,,,19,0,19,0,,,,,,,,,,,,,,,,,,,,,,,,,,,,,,,,,,,,,,923.4018471829986,None,923.4018471829986,None,sub-02,26/07/2002,2: Female,15/07/2023,001,1: right,2023_Jul_15_1222,[FINAL]_fmri_multiplication,2021.2.3,59.64567557967755
block3.xlsx,,,,,,,,,,,,,,0,2,2,2,,,,,20,0,20,0,,,,,,,,,,,,,,,,,,,,,,,,,,,,,,,,,,,,,,924.4016288,None,924.4016288,None,sub-02,26/07/2002,2: Female,15/07/2023,001,1: right,2023_Jul_15_1222,[FINAL]_fmri_multiplication,2021.2.3,59.64567557967755
block3.xlsx,,,,,,,,,,,,,,0,2,2,2,,,,,21,0,21,0,,,,,,,,,,,,,,,,,,,,,,,,,,,,,,,,,,,,,,925.4014590949992,None,925.4014590949992,None,sub-02,26/07/2002,2: Female,15/07/2023,001,1: right,2023_Jul_15_1222,[FINAL]_fmri_multiplication,2021.2.3,59.64567557967755
block3.xlsx,,,,,,,,,,,,,,0,2,2,2,,,,,22,0,22,0,,,,,,,,,,,,,,,,,,,,,,,,,,,,,,,,,,,,,,926.4017759099988,None,926.4017759099988,None,sub-02,26/07/2002,2: Female,15/07/2023,001,1: right,2023_Jul_15_1222,[FINAL]_fmri_multiplication,2021.2.3,59.64567557967755
block3.xlsx,,,,,,,,,,,,,,0,2,2,2,,,,,23,0,23,0,,,,,,,,,,,,,,,,,,,,,,,,,,,,,,,,,,,,,,927.3993136,None,927.3993136,None,sub-02,26/07/2002,2: Female,15/07/2023,001,1: right,2023_Jul_15_1222,[FINAL]_fmri_multiplication,2021.2.3,59.64567557967755
block3.xlsx,,,,,,,,,,,,,,0,2,2,2,,,,,24,0,24,0,,,,,,,,,,,,,,,,,,,,,,,,,,,,,,,,,,,,,,928.4027496,None,928.4027496,None,sub-02,26/07/2002,2: Female,15/07/2023,001,1: right,2023_Jul_15_1222,[FINAL]_fmri_multiplication,2021.2.3,59.64567557967755
block3.xlsx,,,,,,,,,,,,,,0,2,2,2,,,,,25,0,25,0,,,,,,,,,,,,,,,,,,,,,,,,,,,,,,,,,,,,,,929.4027616,None,929.4027616,None,sub-02,26/07/2002,2: Female,15/07/2023,001,1: right,2023_Jul_15_1222,[FINAL]_fmri_multiplication,2021.2.3,59.64567557967755
block3.xlsx,,,,,,,,,,,,,,0,2,2,2,,,,,26,0,26,0,,,,,,,,,,,,,,,,,,,,,,,,,,,,,,,,,,,,,,930.4028414080003,None,930.4028414080003,None,sub-02,26/07/2002,2: Female,15/07/2023,001,1: right,2023_Jul_15_1222,[FINAL]_fmri_multiplication,2021.2.3,59.64567557967755
block3.xlsx,,,,,,,,,,,,,,0,2,2,2,,,,,27,0,27,0,,,,,,,,,,,,,,,,,,,,,,,,,,,,,,,,,,,,,,931.4021437819993,None,931.4021437819993,None,sub-02,26/07/2002,2: Female,15/07/2023,001,1: right,2023_Jul_15_1222,[FINAL]_fmri_multiplication,2021.2.3,59.64567557967755
block3.xlsx,,,,,,,,,,,,,,0,2,2,2,,,,,28,0,28,0,,,,,,,,,,,,,,,,,,,,,,,,,,,,,,,,,,,,,,932.4020941,None,932.4020941,None,sub-02,26/07/2002,2: Female,15/07/2023,001,1: right,2023_Jul_15_1222,[FINAL]_fmri_multiplication,2021.2.3,59.64567557967755
block3.xlsx,,,,,,,,,,,,,,0,2,2,2,,,,,29,0,29,0,,,,,,,,,,,,,,,,,,,,,,,,,,,,,,,,,,,,,,933.4027294139996,None,933.4027294139996,None,sub-02,26/07/2002,2: Female,15/07/2023,001,1: right,2023_Jul_15_1222,[FINAL]_fmri_multiplication,2021.2.3,59.64567557967755
block3.xlsx,,,,,,,,,,,,,,0,2,2,2,,,,,,,,,,,,,,,,,,,,,,,,,,,,,,,,,,,,,,,,,,,,,,,,,,sub-02,26/07/2002,2: Female,15/07/2023,001,1: right,2023_Jul_15_1222,[FINAL]_fmri_multiplication,2021.2.3,59.64567557967755
block4.xlsx,10,7.5,8.4,5 x 6,36,14,5 x 6 = 36,large-sized_low-interference,large-sized,low-interference,6,IncorrectRESP,d,0,3,3,3,0,0,0,0,,,,,,,,,,,,,934.4014621469996,None,944.4247819379998,None,944.9017417849991,None,946.9015181659997,None,947.6509429259986,None,947.9010373729998,None,947.9010373729998,None,a,0,0.5185062210002798,947.9010373729998,None,948.4503258099994,None,948.4503258099994,None,d,0.2412446620000992,948.4503258099994,None,948.7178967199998,None,,,,,sub-02,26/07/2002,2: Female,15/07/2023,001,1: right,2023_Jul_15_1222,[FINAL]_fmri_multiplication,2021.2.3,59.64567557967755
block4.xlsx,25.9,7.5,2.6,6 x 2,12,6,6 x 2 = 12,small-sized_low-interference,small-sized,low-interference,3,CorrectRESP,a,0,3,3,3,0,1,1,1,,,,,,,,,,,,,,,957.1181267769989,None,957.6177266319992,None,959.6182074009994,None,960.3681010049986,None,960.6181580310003,None,960.6181580310003,None,d,0,0.48150484100005997,960.6181580310003,None,961.1165725589999,None,961.1165725589999,None,d,0.19099067500064848,961.1165725589999,None,961.3346369,None,,,,,sub-02,26/07/2002,2: Female,15/07/2023,001,1: right,2023_Jul_15_1222,[FINAL]_fmri_multiplication,2021.2.3,59.64567557967755
block4.xlsx,36,7.5,3.8,8 x 4,32,24,8 x 4 = 32,large-sized_high-interference,large-sized,high-interference,25,CorrectRESP,a,0,3,3,3,0,2,2,2,,,,,,,,,,,,,,,963.9345830889997,None,964.4348076369988,None,966.4348896409992,None,967.1848502039993,None,967.4337239509987,None,967.4337239509987,None,d,0,0.4018055180004012,967.4337239509987,None,967.8681956559994,None,967.8681956559994,None,d,0.19949682300102722,967.8681956559994,None,968.0846348510004,None,,,,,sub-02,26/07/2002,2: Female,15/07/2023,001,1: right,2023_Jul_15_1222,[FINAL]_fmri_multiplication,2021.2.3,59.64567557967755
block4.xlsx,47.3,7.5,3.8,9 x 5,40,15,9 x 5 = 40,large-sized_low-interference,large-sized,low-interference,6,IncorrectRESP,d,0,3,3,3,0,3,3,3,,,,,,,,,,,,,,,971.8851179229987,None,972.3857958999997,None,974.3852524,None,975.1352868,None,975.3854682679994,None,975.3854682679994,None,a,0,0.5701280749999569,975.3854682679994,None,975.9850043459992,None,975.9850043459992,None,d,0.16254504999960773,975.9850043459992,None,976.1681812829993,None,,,,,sub-02,26/07/2002,2: Female,15/07/2023,001,1: right,2023_Jul_15_1222,[FINAL]_fmri_multiplication,2021.2.3,59.64567557967755
block4.xlsx,58.6,7.5,4.4,6 x 3,18,7,6 x 3 = 18,small-sized_high-interference,small-sized,high-interference,8,CorrectRESP,a,0,3,3,3,0,4,4,4,,,,,,,,,,,,,,,979.9684681299987,None,980.4678941099992,None,982.4682118569999,None,983.2183133339986,None,983.4679176499994,None,983.4679176499994,None,d,0,0.4158348480013956,983.4679176499994,None,983.9007936439994,None,983.9007936439994,None,d,0.19086250199870847,983.9007936439994,None,984.1179810949998,None,,,,,sub-02,26/07/2002,2: Female,15/07/2023,001,1: right,2023_Jul_15_1222,[FINAL]_fmri_multiplication,2021.2.3,59.64567557967755
block4.xlsx,70.5,7.5,2.6,4 x 9,32,20,4 x 9 = 32,large-sized_high-interference,large-sized,high-interference,9,IncorrectRESP,d,0,3,3,3,0,5,5,5,,,,,,,,,,,,,,,988.5175692239991,None,989.0179856469986,None,991.0180748059993,None,991.7680071389987,None,992.0164726439998,None,992.0164726439998,None,a,0,0.41105255000002217,992.0164726439998,None,992.4509404580003,None,992.4509404580003,None,d,0.1765958910000336,992.4509404580003,None,992.6509135979995,None,,,,,sub-02,26/07/2002,2: Female,15/07/2023,001,1: right,2023_Jul_15_1222,[FINAL]_fmri_multiplication,2021.2.3,59.64567557967755
block4.xlsx,80.6,7.5,9.4,3 x 4,15,9,3 x 4 = 15,small-sized_high-interference,small-sized,high-interference,10,IncorrectRESP,d,0,3,3,3,0,6,6,6,,,,,,,,,,,,,,,995.2509382239987,None,995.7513740960003,None,997.7510144,None,998.5010492109996,None,998.7515054779997,None,998.7515054779997,None,a,0,0.47605757500059553,998.7515054779997,None,999.2509563629992,None,999.2509563629992,None,d,0.16064308200111554,999.2509563629992,None,999.4344822479998,None,,,,,sub-02,26/07/2002,2: Female,15/07/2023,001,1: right,2023_Jul_15_1222,[FINAL]_fmri_multiplication,2021.2.3,59.64567557967755
block4.xlsx,97.5,7.5,6,6 x 6,36,13,6 x 6 = 36,large-sized_low-interference,large-sized,low-interference,4,CorrectRESP,a,0,3,3,3,0,7,7,7,,,,,,,,,,,,,,,1008.8323127699987,None,1009.3483810950001,None,1011.3520257969994,None,1012.1019463039993,None,1012.3519032099994,None,1012.3519032099994,None,d,0,0.3797739960009494,1012.3519032099994,None,1012.7511950219996,None,1012.7511950219996,None,d,0.18848726000032912,1012.7511950219996,None,1012.9686830640003,None,,,,,sub-02,26/07/2002,2: Female,15/07/2023,001,1: right,2023_Jul_15_1222,[FINAL]_fmri_multiplication,2021.2.3,59.64567557967755
block4.xlsx,111,7.5,5.8,7 x 6,42,23,7 x 6 = 42,large-sized_high-interference,large-sized,high-interference,22,CorrectRESP,a,0,3,3,3,0,8,8,8,,,,,,,,,,,,,,,1018.9681768239989,None,1019.468316,None,1021.468135920999,None,1022.218200285999,None,1022.4677673059996,None,1022.4677673059996,None,d,0,0.4318974400011939,1022.4677673059996,None,1022.9176723990004,None,1022.9176723990004,None,d,0.22994963800010737,1022.9176723990004,None,1023.1675072059988,None,,,,,sub-02,26/07/2002,2: Female,15/07/2023,001,1: right,2023_Jul_15_1222,[FINAL]_fmri_multiplication,2021.2.3,59.64567557967755
block4.xlsx,124.3,7.5,3.6,6 x 4,28,10,6 x 4 = 28,small-sized_high-interference,small-sized,high-interference,12,IncorrectRESP,d,0,3,3,3,0,9,9,9,,,,,,,,,,,,,,,1028.9681308010004,None,1029.4680038449987,None,1031.4680437979987,None,1032.2176860749987,None,1032.4690276419988,None,1032.4690276419988,None,a,0,0.4865751849993103,1032.4690276419988,None,1032.984701,None,1032.984701,None,d,0.17888031600159593,1032.984701,None,1033.1843714059996,None,,,,,sub-02,26/07/2002,2: Female,15/07/2023,001,1: right,2023_Jul_15_1222,[FINAL]_fmri_multiplication,2021.2.3,59.64567557967755
block4.xlsx,135.4,7.5,9.3,5 x 5,30,3,5 x 5 = 30,small-sized_low-interference,small-sized,low-interference,3,IncorrectRESP,d,0,3,3,3,0,10,10,10,,,,,,,,,,,,,,,1036.784897,None,1037.2846483800004,None,1039.2844795820001,None,1040.0351003269989,None,1040.2851937699998,None,1040.2851937699998,None,a,0,0.45443587500085414,1040.2851937699998,None,1040.7615046190003,None,1040.7615046190003,None,d,0.21004533599989372,1040.7615046190003,None,1041.002021,None,,,,,sub-02,26/07/2002,2: Female,15/07/2023,001,1: right,2023_Jul_15_1222,[FINAL]_fmri_multiplication,2021.2.3,59.64567557967755
block4.xlsx,152.2,7.5,9.8,7 x 3,21,11,7 x 3 = 21,small-sized_high-interference,small-sized,high-interference,13,CorrectRESP,a,0,3,3,3,0,11,11,11,,,,,,,,,,,,,,,1050.301544812999,None,1050.801114169999,None,1052.8015278289986,None,1053.5513805279988,None,1053.801307,None,1053.801307,None,d,0,0.4902251019993855,1053.801307,None,1054.3174309759997,None,1054.3174309759997,None,d,0.1982322390012996,1054.3174309759997,None,1054.5345184929993,None,,,,,sub-02,26/07/2002,2: Female,15/07/2023,001,1: right,2023_Jul_15_1222,[FINAL]_fmri_multiplication,2021.2.3,59.64567557967755
block4.xlsx,169.5,7.5,12.8,9 x 9,72,16,9 x 9 = 72,large-sized_low-interference,large-sized,low-interference,6,IncorrectRESP,d,0,3,3,3,0,12,12,12,,,,,,,,,,,,,,,1064.3348001349987,None,1064.8349003249987,None,1066.834772848999,None,1067.5843483669996,None,1067.836133,None,1067.836133,None,a,0,0.4154310190006072,1067.836133,None,1068.2844112989987,None,1068.2844112989987,None,d,0.207184512,1068.2844112989987,None,1068.5179744179986,None,,,,,sub-02,26/07/2002,2: Female,15/07/2023,001,1: right,2023_Jul_15_1222,[FINAL]_fmri_multiplication,2021.2.3,59.64567557967755
block4.xlsx,189.8,7.5,8.9,4 x 4,20,4,4 x 4 = 20,small-sized_low-interference,small-sized,low-interference,5,IncorrectRESP,d,0,3,3,3,0,13,13,13,,,,,,,,,,,,,,,1081.3185824779994,None,1081.8185325679988,None,1083.8185713929997,None,1084.5685311279994,None,1084.817799,None,1084.817799,None,a,0,0.5457526450009027,1084.817799,None,1085.383227,None,1085.383227,None,d,0.17235575699851324,1085.383227,None,1085.5850651599994,None,,,,,sub-02,26/07/2002,2: Female,15/07/2023,001,1: right,2023_Jul_15_1222,[FINAL]_fmri_multiplication,2021.2.3,59.64567557967755
block4.xlsx,206.2,7.5,2.4,5 x 8,45,21,5 x 8 = 45,large-sized_high-interference,large-sized,high-interference,9,IncorrectRESP,d,0,3,3,3,0,14,14,14,,,,,,,,,,,,,,,1094.4847729969988,None,1094.9848147639987,None,1096.9849646740004,None,1097.7347814289988,None,1097.983742598999,None,1097.983742598999,None,a,0,0.51586987,1097.983742598999,None,1098.5176626920002,None,1098.5176626920002,None,d,0.1660009870010981,1098.5176626920002,None,1098.7010140519997,None,,,,,sub-02,26/07/2002,2: Female,15/07/2023,001,1: right,2023_Jul_15_1222,[FINAL]_fmri_multiplication,2021.2.3,59.64567557967755
block4.xlsx,216.1,7.5,14,8 x 2,16,5,8 x 2 = 16,small-sized_low-interference,small-sized,low-interference,7,CorrectRESP,a,0,3,3,3,0,15,15,15,,,,,,,,,,,,,,,1101.1008936099988,None,1101.6018166220001,None,1103.6015112779987,None,1104.3514964240003,None,1104.6012650079992,None,1104.6012650079992,None,d,0,0.4983872920001886,1104.6012650079992,None,1105.117723,None,1105.117723,None,d,0.20589368200126046,1105.117723,None,1105.3514782909988,None,,,,,sub-02,26/07/2002,2: Female,15/07/2023,001,1: right,2023_Jul_15_1222,[FINAL]_fmri_multiplication,2021.2.3,59.64567557967755
block4.xlsx,237.6,7.5,5.2,7 x 5,35,17,7 x 5 = 35,large-sized_low-interference,large-sized,low-interference,7,CorrectRESP,a,0,3,3,3,0,16,16,16,,,,,,,,,,,,,,,1119.351261,None,1119.852446,None,1121.8515274809997,None,1122.6015225299998,None,1122.851161,None,1122.851161,None,d,0,0.4003761060012039,1122.851161,None,1123.2848038459997,None,1123.2848038459997,None,d,0.17483659199933754,1123.2848038459997,None,1123.4848231029991,None,,,,,sub-02,26/07/2002,2: Female,15/07/2023,001,1: right,2023_Jul_15_1222,[FINAL]_fmri_multiplication,2021.2.3,59.64567557967755
block4.xlsx,250.3,7.5,9.6,8 x 7,63,22,8 x 7 = 63,large-sized_high-interference,large-sized,high-interference,9,IncorrectRESP,d,0,3,3,3,0,17,17,17,,,,,,,,,,,,,,,1128.6846226540001,None,1129.1850096629987,None,1131.1848165809988,None,1131.934735044999,None,1132.185468,None,1132.185468,None,a,0,0.45009368199862365,1132.185468,None,1132.666994318999,None,1132.666994318999,None,d,0.17654200000106357,1132.666994318999,None,1132.8681205129997,None,,,,,sub-02,26/07/2002,2: Female,15/07/2023,001,1: right,2023_Jul_15_1222,[FINAL]_fmri_multiplication,2021.2.3,59.64567557967755
block4.xlsx,267.4,7.5,2.6,2 x 9,16,2,2 x 9 = 16,small-sized_low-interference,small-sized,low-interference,7,IncorrectRESP,d,0,3,3,3,0,18,18,18,,,,,,,,,,,,,,,1142.4682316919989,None,1142.969372403999,None,1144.984879,None,1145.7350558540002,None,1145.985912,None,1145.985912,None,a,0,0.5536925239994162,1145.985912,None,1146.5682330700001,None,1146.5682330700001,None,d,0.17943219900007534,1146.5682330700001,None,1146.7682472220004,None,,,,,sub-02,26/07/2002,2: Female,15/07/2023,001,1: right,2023_Jul_15_1222,[FINAL]_fmri_multiplication,2021.2.3,59.64567557967755
block4.xlsx,277.5,7.5,2.3,9 x 3,27,19,9 x 3 = 27,large-sized_high-interference,large-sized,high-interference,9,CorrectRESP,a,0,3,3,3,0,19,19,19,,,,,,,,,,,,,,,1149.368593,None,1149.8683969799986,None,1151.8684746479994,None,1152.6186056869992,None,1152.8685340819993,None,1152.8685340819993,None,d,0,0.3430488840003818,1152.8685340819993,None,1153.2347314769995,None,1153.2347314769995,None,d,0.18483129199921677,1153.2347314769995,None,1153.4517393789993,None,,,,,sub-02,26/07/2002,2: Female,15/07/2023,001,1: right,2023_Jul_15_1222,[FINAL]_fmri_multiplication,2021.2.3,59.64567557967755
block4.xlsx,287.3,7.5,3.1,4 x 5,16,8,4 x 5 = 16,small-sized_high-interference,small-sized,high-interference,8,IncorrectRESP,d,0,3,3,3,0,20,20,20,,,,,,,,,,,,,,,1155.7510215839993,None,1156.2507098879996,None,1158.252204,None,1159.0016220119996,None,1159.2511918869986,None,1159.2511918869986,None,a,0,0.4644315200002893,1159.2511918869986,None,1159.7344943560001,None,1159.7344943560001,None,d,0.14935900199998287,1159.7344943560001,None,1159.9009920609988,None,,,,,sub-02,26/07/2002,2: Female,15/07/2023,001,1: right,2023_Jul_15_1222,[FINAL]_fmri_multiplication,2021.2.3,59.64567557967755
block4.xlsx,297.9,7.5,2.7,7 x 7,49,18,7 x 7 = 49,large-sized_low-interference,large-sized,low-interference,7,CorrectRESP,a,0,3,3,3,0,21,21,21,,,,,,,,,,,,,,,1163.001426,None,1163.501403811999,None,1165.5014962899986,None,1166.251561,None,1166.5010263059994,None,1166.5010263059994,None,d,0,0.3827211070001795,1166.5010263059994,None,1166.901297381999,None,1166.901297381999,None,d,0.18243985300068744,1166.901297381999,None,1167.1009968149992,None,,,,,sub-02,26/07/2002,2: Female,15/07/2023,001,1: right,2023_Jul_15_1222,[FINAL]_fmri_multiplication,2021.2.3,59.64567557967755
block4.xlsx,308.1,7.5,4.8,7 x 2,14,1,7 x 2 = 14,small-sized_low-interference,small-sized,low-interference,4,CorrectRESP,a,0,3,3,3,0,22,22,22,,,,,,,,,,,,,,,1169.8015091399993,None,1170.3013222199988,None,1172.301074126999,None,1173.051441,None,1173.3016122319987,None,1173.3016122319987,None,d,0,0.3419202499990206,1173.3016122319987,None,1173.668230678999,None,1173.668230678999,None,d,0.1673311670001567,1173.668230678999,None,1173.867725,None,,,,,sub-02,26/07/2002,2: Female,15/07/2023,001,1: right,2023_Jul_15_1222,[FINAL]_fmri_multiplication,2021.2.3,59.64567557967755
block4.xlsx,320.4,7.5,7.1,3 x 8,24,12,3 x 8 = 24,small-sized_high-interference,small-sized,high-interference,13,CorrectRESP,a,0,3,3,3,0,23,23,23,,,,,,,,,,,,,,,1178.6682546390002,None,1179.1691606929999,None,1181.1683846159995,None,1181.9151992119987,None,1182.1612840239995,None,1182.1612840239995,None,d,0,0.3463195580006868,1182.1612840239995,None,1182.5351578190002,None,1182.5351578190002,None,d,0.1645262179990823,1182.5351578190002,None,1182.7181941479994,None,,,,,sub-02,26/07/2002,2: Female,15/07/2023,001,1: right,2023_Jul_15_1222,[FINAL]_fmri_multiplication,2021.2.3,59.64567557967755
block4.xlsx,,,,,,,,,,,,,,0,3,3,3,,,,,0,0,0,0,,,,,,,,,,,,,,,,,,,,,,,,,,,,,,,,,,,,,,1189.8191234899987,None,1189.8191234899987,None,sub-02,26/07/2002,2: Female,15/07/2023,001,1: right,2023_Jul_15_1222,[FINAL]_fmri_multiplication,2021.2.3,59.64567557967755
block4.xlsx,,,,,,,,,,,,,,0,3,3,3,,,,,1,0,1,0,,,,,,,,,,,,,,,,,,,,,,,,,,,,,,,,,,,,,,1190.818061,1190.818061,1190.818061,1190.818061,sub-02,26/07/2002,2: Female,15/07/2023,001,1: right,2023_Jul_15_1222,[FINAL]_fmri_multiplication,2021.2.3,59.64567557967755
block4.xlsx,,,,,,,,,,,,,,0,3,3,3,,,,,2,0,2,0,,,,,,,,,,,,,,,,,,,,,,,,,,,,,,,,,,,,,,1191.8176395869996,1191.8176395869996,1191.8176395869996,1191.8176395869996,sub-02,26/07/2002,2: Female,15/07/2023,001,1: right,2023_Jul_15_1222,[FINAL]_fmri_multiplication,2021.2.3,59.64567557967755
block4.xlsx,,,,,,,,,,,,,,0,3,3,3,,,,,3,0,3,0,,,,,,,,,,,,,,,,,,,,,,,,,,,,,,,,,,,,,,1192.8179115719995,1192.8179115719995,1192.8179115719995,1192.8179115719995,sub-02,26/07/2002,2: Female,15/07/2023,001,1: right,2023_Jul_15_1222,[FINAL]_fmri_multiplication,2021.2.3,59.64567557967755
block4.xlsx,,,,,,,,,,,,,,0,3,3,3,,,,,4,0,4,0,,,,,,,,,,,,,,,,,,,,,,,,,,,,,,,,,,,,,,1193.817893170999,1193.817893170999,1193.817893170999,1193.817893170999,sub-02,26/07/2002,2: Female,15/07/2023,001,1: right,2023_Jul_15_1222,[FINAL]_fmri_multiplication,2021.2.3,59.64567557967755
block4.xlsx,,,,,,,,,,,,,,0,3,3,3,,,,,5,0,5,0,,,,,,,,,,,,,,,,,,,,,,,,,,,,,,,,,,,,,,1194.8180951609993,1194.8180951609993,1194.8180951609993,1194.8180951609993,sub-02,26/07/2002,2: Female,15/07/2023,001,1: right,2023_Jul_15_1222,[FINAL]_fmri_multiplication,2021.2.3,59.64567557967755
block4.xlsx,,,,,,,,,,,,,,0,3,3,3,,,,,6,0,6,0,,,,,,,,,,,,,,,,,,,,,,,,,,,,,,,,,,,,,,1195.8177953089998,1195.8177953089998,1195.8177953089998,1195.8177953089998,sub-02,26/07/2002,2: Female,15/07/2023,001,1: right,2023_Jul_15_1222,[FINAL]_fmri_multiplication,2021.2.3,59.64567557967755
block4.xlsx,,,,,,,,,,,,,,0,3,3,3,,,,,7,0,7,0,,,,,,,,,,,,,,,,,,,,,,,,,,,,,,,,,,,,,,1196.818564572999,1196.818564572999,1196.818564572999,1196.818564572999,sub-02,26/07/2002,2: Female,15/07/2023,001,1: right,2023_Jul_15_1222,[FINAL]_fmri_multiplication,2021.2.3,59.64567557967755
block4.xlsx,,,,,,,,,,,,,,0,3,3,3,,,,,8,0,8,0,,,,,,,,,,,,,,,,,,,,,,,,,,,,,,,,,,,,,,1197.819488105999,1197.819488105999,1197.819488105999,1197.819488105999,sub-02,26/07/2002,2: Female,15/07/2023,001,1: right,2023_Jul_15_1222,[FINAL]_fmri_multiplication,2021.2.3,59.64567557967755
block4.xlsx,,,,,,,,,,,,,,0,3,3,3,,,,,9,0,9,0,,,,,,,,,,,,,,,,,,,,,,,,,,,,,,,,,,,,,,1198.835272,None,1198.835272,None,sub-02,26/07/2002,2: Female,15/07/2023,001,1: right,2023_Jul_15_1222,[FINAL]_fmri_multiplication,2021.2.3,59.64567557967755
block4.xlsx,,,,,,,,,,,,,,0,3,3,3,,,,,10,0,10,0,,,,,,,,,,,,,,,,,,,,,,,,,,,,,,,,,,,,,,1199.8358876419989,None,1199.8358876419989,None,sub-02,26/07/2002,2: Female,15/07/2023,001,1: right,2023_Jul_15_1222,[FINAL]_fmri_multiplication,2021.2.3,59.64567557967755
block4.xlsx,,,,,,,,,,,,,,0,3,3,3,,,,,11,0,11,0,,,,,,,,,,,,,,,,,,,,,,,,,,,,,,,,,,,,,,1200.8352286169993,None,1200.8352286169993,None,sub-02,26/07/2002,2: Female,15/07/2023,001,1: right,2023_Jul_15_1222,[FINAL]_fmri_multiplication,2021.2.3,59.64567557967755
block4.xlsx,,,,,,,,,,,,,,0,3,3,3,,,,,12,0,12,0,,,,,,,,,,,,,,,,,,,,,,,,,,,,,,,,,,,,,,1201.8349046820003,None,1201.8349046820003,None,sub-02,26/07/2002,2: Female,15/07/2023,001,1: right,2023_Jul_15_1222,[FINAL]_fmri_multiplication,2021.2.3,59.64567557967755
block4.xlsx,,,,,,,,,,,,,,0,3,3,3,,,,,13,0,13,0,,,,,,,,,,,,,,,,,,,,,,,,,,,,,,,,,,,,,,1202.8347544169992,None,1202.8347544169992,None,sub-02,26/07/2002,2: Female,15/07/2023,001,1: right,2023_Jul_15_1222,[FINAL]_fmri_multiplication,2021.2.3,59.64567557967755
block4.xlsx,,,,,,,,,,,,,,0,3,3,3,,,,,14,0,14,0,,,,,,,,,,,,,,,,,,,,,,,,,,,,,,,,,,,,,,1203.8348837089998,None,1203.8348837089998,None,sub-02,26/07/2002,2: Female,15/07/2023,001,1: right,2023_Jul_15_1222,[FINAL]_fmri_multiplication,2021.2.3,59.64567557967755
block4.xlsx,,,,,,,,,,,,,,0,3,3,3,,,,,15,0,15,0,,,,,,,,,,,,,,,,,,,,,,,,,,,,,,,,,,,,,,1204.836403711999,None,1204.836403711999,None,sub-02,26/07/2002,2: Female,15/07/2023,001,1: right,2023_Jul_15_1222,[FINAL]_fmri_multiplication,2021.2.3,59.64567557967755
block4.xlsx,,,,,,,,,,,,,,0,3,3,3,,,,,16,0,16,0,,,,,,,,,,,,,,,,,,,,,,,,,,,,,,,,,,,,,,1205.8344628689993,None,1205.8344628689993,None,sub-02,26/07/2002,2: Female,15/07/2023,001,1: right,2023_Jul_15_1222,[FINAL]_fmri_multiplication,2021.2.3,59.64567557967755
block4.xlsx,,,,,,,,,,,,,,0,3,3,3,,,,,17,0,17,0,,,,,,,,,,,,,,,,,,,,,,,,,,,,,,,,,,,,,,1206.8350326620002,None,1206.8350326620002,None,sub-02,26/07/2002,2: Female,15/07/2023,001,1: right,2023_Jul_15_1222,[FINAL]_fmri_multiplication,2021.2.3,59.64567557967755
block4.xlsx,,,,,,,,,,,,,,0,3,3,3,,,,,18,0,18,0,,,,,,,,,,,,,,,,,,,,,,,,,,,,,,,,,,,,,,1207.8357422419995,None,1207.8357422419995,None,sub-02,26/07/2002,2: Female,15/07/2023,001,1: right,2023_Jul_15_1222,[FINAL]_fmri_multiplication,2021.2.3,59.64567557967755
block4.xlsx,,,,,,,,,,,,,,0,3,3,3,,,,,19,0,19,0,,,,,,,,,,,,,,,,,,,,,,,,,,,,,,,,,,,,,,1208.8337241569989,None,1208.8337241569989,None,sub-02,26/07/2002,2: Female,15/07/2023,001,1: right,2023_Jul_15_1222,[FINAL]_fmri_multiplication,2021.2.3,59.64567557967755
block4.xlsx,,,,,,,,,,,,,,0,3,3,3,,,,,20,0,20,0,,,,,,,,,,,,,,,,,,,,,,,,,,,,,,,,,,,,,,1209.8359591539993,None,1209.8359591539993,None,sub-02,26/07/2002,2: Female,15/07/2023,001,1: right,2023_Jul_15_1222,[FINAL]_fmri_multiplication,2021.2.3,59.64567557967755
block4.xlsx,,,,,,,,,,,,,,0,3,3,3,,,,,21,0,21,0,,,,,,,,,,,,,,,,,,,,,,,,,,,,,,,,,,,,,,1210.835341,None,1210.835341,None,sub-02,26/07/2002,2: Female,15/07/2023,001,1: right,2023_Jul_15_1222,[FINAL]_fmri_multiplication,2021.2.3,59.64567557967755
block4.xlsx,,,,,,,,,,,,,,0,3,3,3,,,,,22,0,22,0,,,,,,,,,,,,,,,,,,,,,,,,,,,,,,,,,,,,,,1211.8342709359986,None,1211.8342709359986,None,sub-02,26/07/2002,2: Female,15/07/2023,001,1: right,2023_Jul_15_1222,[FINAL]_fmri_multiplication,2021.2.3,59.64567557967755
block4.xlsx,,,,,,,,,,,,,,0,3,3,3,,,,,23,0,23,0,,,,,,,,,,,,,,,,,,,,,,,,,,,,,,,,,,,,,,1212.8345525759996,None,1212.8345525759996,None,sub-02,26/07/2002,2: Female,15/07/2023,001,1: right,2023_Jul_15_1222,[FINAL]_fmri_multiplication,2021.2.3,59.64567557967755
block4.xlsx,,,,,,,,,,,,,,0,3,3,3,,,,,24,0,24,0,,,,,,,,,,,,,,,,,,,,,,,,,,,,,,,,,,,,,,1213.8368960059997,None,1213.8368960059997,None,sub-02,26/07/2002,2: Female,15/07/2023,001,1: right,2023_Jul_15_1222,[FINAL]_fmri_multiplication,2021.2.3,59.64567557967755
block4.xlsx,,,,,,,,,,,,,,0,3,3,3,,,,,25,0,25,0,,,,,,,,,,,,,,,,,,,,,,,,,,,,,,,,,,,,,,1214.8375396709998,None,1214.8375396709998,None,sub-02,26/07/2002,2: Female,15/07/2023,001,1: right,2023_Jul_15_1222,[FINAL]_fmri_multiplication,2021.2.3,59.64567557967755
block4.xlsx,,,,,,,,,,,,,,0,3,3,3,,,,,26,0,26,0,,,,,,,,,,,,,,,,,,,,,,,,,,,,,,,,,,,,,,1215.8372276329992,None,1215.8372276329992,None,sub-02,26/07/2002,2: Female,15/07/2023,001,1: right,2023_Jul_15_1222,[FINAL]_fmri_multiplication,2021.2.3,59.64567557967755
block4.xlsx,,,,,,,,,,,,,,0,3,3,3,,,,,27,0,27,0,,,,,,,,,,,,,,,,,,,,,,,,,,,,,,,,,,,,,,1216.8342648979997,None,1216.8342648979997,None,sub-02,26/07/2002,2: Female,15/07/2023,001,1: right,2023_Jul_15_1222,[FINAL]_fmri_multiplication,2021.2.3,59.64567557967755
block4.xlsx,,,,,,,,,,,,,,0,3,3,3,,,,,28,0,28,0,,,,,,,,,,,,,,,,,,,,,,,,,,,,,,,,,,,,,,1217.8360441269997,None,1217.8360441269997,None,sub-02,26/07/2002,2: Female,15/07/2023,001,1: right,2023_Jul_15_1222,[FINAL]_fmri_multiplication,2021.2.3,59.64567557967755
block4.xlsx,,,,,,,,,,,,,,0,3,3,3,,,,,29,0,29,0,,,,,,,,,,,,,,,,,,,,,,,,,,,,,,,,,,,,,,1218.8374872709992,None,1218.8374872709992,None,sub-02,26/07/2002,2: Female,15/07/2023,001,1: right,2023_Jul_15_1222,[FINAL]_fmri_multiplication,2021.2.3,59.64567557967755
block4.xlsx,,,,,,,,,,,,,,0,3,3,3,,,,,,,,,,,,,,,,,,,,,,,,,,,,,,,,,,,,,,,,,,,,,,,,,,sub-02,26/07/2002,2: Female,15/07/2023,001,1: right,2023_Jul_15_1222,[FINAL]_fmri_multiplication,2021.2.3,59.64567557967755