blocks_file,start,dur,rest,mult_problemB,mult_options,stim_trial,mult_stim,type,ProblemSize,InterferenceLH,InterferenceLevel,mult_type,corrRESP,blocks_set.thisRepN,blocks_set.thisTrialN,blocks_set.thisN,blocks_set.thisIndex,TRIALS.thisRepN,TRIALS.thisTrialN,TRIALS.thisN,TRIALS.thisIndex,timer_loop.thisRepN,timer_loop.thisTrialN,timer_loop.thisN,timer_loop.thisIndex,WAIT_TEXT.started,WAIT_TEXT.stopped,scan_start_trigger.keys,scan_start_trigger.rt,scan_start_trigger.started,scan_start_trigger.stopped,MAIN_SCREEN.started,MAIN_SCREEN.stopped,Block_Text.started,Block_Text.stopped,asterisk500ms.started,asterisk500ms.stopped,mult_question_text.started,mult_question_text.stopped,equal_text.started,equal_text.stopped,blank250_text.started,blank250_text.stopped,Mult_OPTION.started,Mult_OPTION.stopped,Mult_YN.started,Mult_YN.stopped,Mult_Resp.keys,Mult_Resp.corr,Mult_Resp.rt,Mult_Resp.started,Mult_Resp.stopped,Strategy_Q.started,Strategy_Q.stopped,Strategy_Option.started,Strategy_Option.stopped,Strategy_RESP.keys,Strategy_RESP.rt,Strategy_RESP.started,Strategy_RESP.stopped,jitters.started,jitters.stopped,resting_text.started,resting_text.stopped,countdown_timer.started,countdown_timer.stopped,participant,Date of birth (DD/MM/YEAR),gender,Testing Date (DD/MM/YEAR),session,handedness,date,expName,psychopyVersion,frameRate
,,,,,,,,,,,,,,,,,,,,,,,,,,27.948244750999947,None,s,8.130304759000865,27.948244750999947,None,,,,,,,,,,,,,,,,,,,,,,,,,,,,,,,,,,,,sub-03,05/02/2001,1: Male,15/07/2023,004,1: right,2023_Jul_15_1138,[FINAL]_fmri_multiplication,2021.2.3,59.96818088287982
block5.xlsx,10,7.5,4.6,3 x 6,18,7,6 x 3 = 18,small-sized_high-interference,small-sized,high-interference,8,CorrectRESP,a,0,0,0,0,0,0,0,0,,,,,,,,,,,36.10513201700087,None,41.12608910000017,None,51.12846321300094,None,51.60831487,None,53.604872724001325,None,54.35535162300039,None,54.60674557400125,None,54.60674557400125,None,a,0,0.5151287810003851,54.60674557400125,None,55.155281715000456,None,55.155281715000456,None,d,0.12660955700084742,55.155281715000456,None,55.304649016999974,None,,,,,sub-03,05/02/2001,1: Male,15/07/2023,004,1: right,2023_Jul_15_1138,[FINAL]_fmri_multiplication,2021.2.3,59.96818088287982
block5.xlsx,22.1,7.5,7,9 x 9,72,16,9 x 9 = 72,large-sized_low-interference,large-sized,low-interference,6,IncorrectRESP,d,0,0,0,0,0,1,1,1,,,,,,,,,,,,,,,59.904946194999866,None,60.40585839800042,None,62.40517010199983,None,63.15515078400131,None,63.40714461,None,63.40714461,None,d,0,0.8588478559995565,63.40714461,None,64.28807795400098,None,64.28807795400098,None,d,0.14586875900022278,64.28807795400098,None,64.45458059200064,None,,,,,sub-03,05/02/2001,1: Male,15/07/2023,004,1: right,2023_Jul_15_1138,[FINAL]_fmri_multiplication,2021.2.3,59.96818088287982
block5.xlsx,36.6,7.5,4.4,2 x 6,12,6,6 x 2 = 12,small-sized_low-interference,small-sized,low-interference,3,CorrectRESP,a,0,0,0,0,0,2,2,2,,,,,,,,,,,,,,,71.45479155100111,None,71.95505114099979,None,73.95514346300115,None,74.70515277900085,None,74.95534366,None,74.95534366,None,a,0,0.4865463730002375,74.95534366,None,75.46983624700079,None,75.46983624700079,None,d,0.14803595899866195,75.46983624700079,None,75.63820366100117,None,,,,,sub-03,05/02/2001,1: Male,15/07/2023,004,1: right,2023_Jul_15_1138,[FINAL]_fmri_multiplication,2021.2.3,59.96818088287982
block5.xlsx,48.5,7.5,9.6,8 x 3,24,12,3 x 8 = 24,small-sized_high-interference,small-sized,high-interference,13,CorrectRESP,a,0,0,0,0,0,3,3,3,,,,,,,,,,,,,,,80.05572995,None,80.55418920300144,None,82.55567100799999,None,83.30563525599973,None,83.55553815300118,None,83.55553815300118,None,a,0,0.486344832,83.55553815300118,None,84.07210818500062,None,84.07210818500062,None,d,0.3539683609997155,84.07210818500062,None,84.45559171600144,None,,,,,sub-03,05/02/2001,1: Male,15/07/2023,004,1: right,2023_Jul_15_1138,[FINAL]_fmri_multiplication,2021.2.3,59.96818088287982
block5.xlsx,65.6,7.5,5.4,5 x 5,30,3,5 x 5 = 30,small-sized_low-interference,small-sized,low-interference,3,IncorrectRESP,d,0,0,0,0,0,4,4,4,,,,,,,,,,,,,,,94.05533019200084,None,94.55638041800012,None,96.57160768700123,None,97.32178765900062,None,97.57210628,None,97.57210628,None,d,0,0.5738959310001519,97.57210628,None,98.17117978600072,None,98.17117978600072,None,d,0.11074510999969789,98.17117978600072,None,98.30471480100096,None,,,,,sub-03,05/02/2001,1: Male,15/07/2023,004,1: right,2023_Jul_15_1138,[FINAL]_fmri_multiplication,2021.2.3,59.96818088287982
block5.xlsx,78.5,7.5,7.7,3 x 9,27,19,9 x 3 = 27,large-sized_high-interference,large-sized,high-interference,9,CorrectRESP,a,0,0,0,0,0,5,5,5,,,,,,,,,,,,,,,103.70514561399978,None,104.20484917800059,None,106.20490029800021,None,106.95517153600122,None,107.20487169800072,None,107.20487169800072,None,a,0,0.5810901990007551,107.20487169800072,None,107.80454953700064,None,107.80454953700064,None,d,0.1893215969994344,107.80454953700064,None,108.02109576200019,None,,,,,sub-03,05/02/2001,1: Male,15/07/2023,004,1: right,2023_Jul_15_1138,[FINAL]_fmri_multiplication,2021.2.3,59.96818088287982
block5.xlsx,93.7,7.5,3.5,2 x 8,18,5,8 x 2 = 18,small-sized_low-interference,small-sized,low-interference,7,IncorrectRESP,d,0,0,0,0,0,6,6,6,,,,,,,,,,,,,,,115.72228741700019,None,116.22235594700032,None,118.2221133210005,None,118.9722848750007,None,119.2206991160001,None,119.2206991160001,None,d,0,0.6931287150000571,119.2206991160001,None,119.9385715820008,None,119.9385715820008,None,d,0.10331051700086391,119.9385715820008,None,120.07223704200078,None,,,,,sub-03,05/02/2001,1: Male,15/07/2023,004,1: right,2023_Jul_15_1138,[FINAL]_fmri_multiplication,2021.2.3,59.96818088287982
block5.xlsx,104.7,7.5,6.4,7 x 7,49,18,7 x 7 = 49,large-sized_low-interference,large-sized,low-interference,7,CorrectRESP,a,0,0,0,0,0,7,7,7,,,,,,,,,,,,,,,123.57182641700092,None,124.07182351200026,None,126.07198680000147,None,126.82203681800092,None,127.07140607400106,None,127.07140607400106,None,a,0,0.9864862119993631,127.07140607400106,None,128.08839503800118,None,128.08839503800118,None,d,0.20149453799967887,128.08839503800118,None,128.32174085600127,None,,,,,sub-03,05/02/2001,1: Male,15/07/2023,004,1: right,2023_Jul_15_1138,[FINAL]_fmri_multiplication,2021.2.3,59.96818088287982
block5.xlsx,118.6,7.5,3.2,8 x 5,45,21,5 x 8 = 45,large-sized_high-interference,large-sized,high-interference,9,IncorrectRESP,d,0,0,0,0,0,8,8,8,,,,,,,,,,,,,,,134.72178992299996,None,135.2215550760011,None,137.22187034499984,None,137.9713506930002,None,138.2216286210005,None,138.2216286210005,None,d,0,0.612281506,138.2216286210005,None,138.85340717700092,None,138.85340717700092,None,d,0.04444538,138.85340717700092,None,138.9217900550011,None,,,,,sub-03,05/02/2001,1: Male,15/07/2023,004,1: right,2023_Jul_15_1138,[FINAL]_fmri_multiplication,2021.2.3,59.96818088287982
block5.xlsx,129.3,7.5,6.8,5 x 4,20,8,4 x 5 = 20,small-sized_high-interference,small-sized,high-interference,8,CorrectRESP,a,0,0,0,0,0,9,9,9,,,,,,,,,,,,,,,142.12141289300052,None,142.6216772429998,None,144.62185747200056,None,145.37184941000123,None,145.62178142000084,None,145.62178142000084,None,a,0,0.636111552,145.62178142000084,None,146.28822550400037,None,146.28822550400037,None,d,0.3936850959998992,146.28822550400037,None,146.70480618400143,None,,,,,sub-03,05/02/2001,1: Male,15/07/2023,004,1: right,2023_Jul_15_1138,[FINAL]_fmri_multiplication,2021.2.3,59.96818088287982
block5.xlsx,143.6,7.5,5.5,6 x 5,30,14,5 x 6 = 30,large-sized_low-interference,large-sized,low-interference,6,CorrectRESP,a,0,0,0,0,0,10,10,10,,,,,,,,,,,,,,,153.50519715200062,None,154.00583619400095,None,156.00511926900072,None,156.75560733600105,None,157.00586597100119,None,157.00586597100119,None,a,0,0.7080287139997381,157.00586597100119,None,157.73836473600022,None,157.73836473600022,None,d,0.19161998799972935,157.73836473600022,None,157.95538184900033,None,,,,,sub-03,05/02/2001,1: Male,15/07/2023,004,1: right,2023_Jul_15_1138,[FINAL]_fmri_multiplication,2021.2.3,59.96818088287982
block5.xlsx,156.6,7.5,6,3 x 7,24,11,7 x 3 = 24,small-sized_high-interference,small-sized,high-interference,13,IncorrectRESP,d,0,0,0,0,0,11,11,11,,,,,,,,,,,,,,,163.45514221899975,None,163.95494026100096,None,165.9553033280008,None,166.70516131800105,None,166.9549392050012,None,166.9549392050012,None,d,0,0.6070614149994071,166.9549392050012,None,167.58803997700124,None,167.58803997700124,None,d,0.069855573,167.58803997700124,None,167.6885988720005,None,,,,,sub-03,05/02/2001,1: Male,15/07/2023,004,1: right,2023_Jul_15_1138,[FINAL]_fmri_multiplication,2021.2.3,59.96818088287982
block5.xlsx,170.1,7.5,7.1,5 x 7,40,17,7 x 5 = 40,large-sized_low-interference,large-sized,low-interference,7,IncorrectRESP,d,0,0,0,0,0,12,12,12,,,,,,,,,,,,,,,173.6879308610005,None,174.18808548200104,None,176.18802061899987,None,176.93842386400138,None,177.1892838390013,None,177.1892838390013,None,d,0,0.6286840160009888,177.1892838390013,None,177.83805411899993,None,177.83805411899993,None,d,0.2278865370008134,177.83805411899993,None,178.08841880900036,None,,,,,sub-03,05/02/2001,1: Male,15/07/2023,004,1: right,2023_Jul_15_1138,[FINAL]_fmri_multiplication,2021.2.3,59.96818088287982
block5.xlsx,184.7,7.5,5.3,4 x 6,28,10,6 x 4 = 28,small-sized_high-interference,small-sized,high-interference,12,IncorrectRESP,d,0,0,0,0,0,13,13,13,,,,,,,,,,,,,,,185.1883296670003,None,185.70579592100148,None,187.70553826200012,None,188.45559112800038,None,188.7047380790009,None,188.7047380790009,None,d,0,0.5691529410014482,188.7047380790009,None,189.30423583800075,None,189.30423583800075,None,d,0.089696506,189.30423583800075,None,189.42230089999975,None,,,,,sub-03,05/02/2001,1: Male,15/07/2023,004,1: right,2023_Jul_15_1138,[FINAL]_fmri_multiplication,2021.2.3,59.96818088287982
block5.xlsx,197.5,7.5,4.2,2 x 7,14,1,7 x 2 = 14,small-sized_low-interference,small-sized,low-interference,4,CorrectRESP,a,0,0,0,0,0,14,14,14,,,,,,,,,,,,,,,194.72208398600014,None,195.22125717700146,None,197.22172015199976,None,197.9871560749998,None,198.2381620240012,None,198.2381620240012,None,a,0,0.5478063350001321,198.2381620240012,None,198.8047086100014,None,198.8047086100014,None,d,0.19726262699987274,198.8047086100014,None,199.0218383219999,None,,,,,sub-03,05/02/2001,1: Male,15/07/2023,004,1: right,2023_Jul_15_1138,[FINAL]_fmri_multiplication,2021.2.3,59.96818088287982
block5.xlsx,209.2,7.5,7.2,9 x 4,36,20,4 x 9 = 36,large-sized_high-interference,large-sized,high-interference,9,CorrectRESP,a,0,0,0,0,0,15,15,15,,,,,,,,,,,,,,,203.22185755900136,None,203.7220522280004,None,205.72188728699984,None,206.4718428110009,None,206.72286491399973,None,206.72286491399973,None,a,0,0.615215405,206.72286491399973,None,207.35372789400026,None,207.35372789400026,None,d,0.1921152399991115,207.35372789400026,None,207.5715821140002,None,,,,,sub-03,05/02/2001,1: Male,15/07/2023,004,1: right,2023_Jul_15_1138,[FINAL]_fmri_multiplication,2021.2.3,59.96818088287982
block5.xlsx,223.9,7.5,4.3,4 x 4,20,4,4 x 4 = 20,small-sized_low-interference,small-sized,low-interference,5,IncorrectRESP,d,0,0,0,0,0,16,16,16,,,,,,,,,,,,,,,214.7718534659998,None,215.2716035379999,None,217.27197593300116,None,218.02170131800085,None,218.27220105000015,None,218.27220105000015,None,d,0,0.7138112900011038,218.27220105000015,None,219.0042223620003,None,219.0042223620003,None,d,0.14180160900104966,219.0042223620003,None,219.17168900900106,None,,,,,sub-03,05/02/2001,1: Male,15/07/2023,004,1: right,2023_Jul_15_1138,[FINAL]_fmri_multiplication,2021.2.3,59.96818088287982
block5.xlsx,235.7,7.5,9.9,6 x 7,48,23,7 x 6 = 48,large-sized_high-interference,large-sized,high-interference,22,IncorrectRESP,d,0,0,0,0,0,17,17,17,,,,,,,,,,,,,,,223.47236425700066,None,223.97215050700106,None,225.9723108570015,None,226.72223670300082,None,226.9719009,None,226.9719009,None,d,0,0.5980908219989942,226.9719009,None,227.58661361899976,None,227.58661361899976,None,d,0.08726946,227.58661361899976,None,227.70569627199984,None,,,,,sub-03,05/02/2001,1: Male,15/07/2023,004,1: right,2023_Jul_15_1138,[FINAL]_fmri_multiplication,2021.2.3,59.96818088287982
block5.xlsx,253.1,7.5,3.1,9 x 2,18,2,2 x 9 = 18,small-sized_low-interference,small-sized,low-interference,7,CorrectRESP,a,0,0,0,0,0,18,18,18,,,,,,,,,,,,,,,237.60519224200107,None,238.1064124960012,None,240.12164251600007,None,240.87193285100147,None,241.12187546600035,None,241.12187546600035,None,a,0,0.5441441679995478,241.12187546600035,None,241.6879394080006,None,241.6879394080006,None,d,0.1699340969989862,241.6879394080006,None,241.88857806800115,None,,,,,sub-03,05/02/2001,1: Male,15/07/2023,004,1: right,2023_Jul_15_1138,[FINAL]_fmri_multiplication,2021.2.3,59.96818088287982
block5.xlsx,263.7,7.5,4.6,5 x 9,40,15,9 x 5 = 40,large-sized_low-interference,large-sized,low-interference,6,IncorrectRESP,d,0,0,0,0,0,19,19,19,,,,,,,,,,,,,,,244.98786738000126,None,245.4887539930005,None,247.48805599700063,None,248.238549,None,248.48983477100046,None,248.48983477100046,None,d,0,0.592050969,248.48983477100046,None,249.10479780700007,None,249.10479780700007,None,d,0.049181151000084355,249.10479780700007,None,249.17131906500072,None,,,,,sub-03,05/02/2001,1: Male,15/07/2023,004,1: right,2023_Jul_15_1138,[FINAL]_fmri_multiplication,2021.2.3,59.96818088287982
block5.xlsx,275.8,7.5,3.9,7 x 8,63,22,8 x 7 = 63,large-sized_high-interference,large-sized,high-interference,9,IncorrectRESP,d,0,0,0,0,0,20,20,20,,,,,,,,,,,,,,,253.77194449200033,None,254.27219673400032,None,256.26934571400125,None,257.01085876100115,None,257.25730643600036,None,257.25730643600036,None,d,0,0.6087038480000047,257.25730643600036,None,257.8885476940013,None,257.8885476940013,None,d,0.10542332399927545,257.8885476940013,None,258.0219424120005,None,,,,,sub-03,05/02/2001,1: Male,15/07/2023,004,1: right,2023_Jul_15_1138,[FINAL]_fmri_multiplication,2021.2.3,59.96818088287982
block5.xlsx,287.2,7.5,7.4,4 x 3,15,9,3 x 4 = 15,small-sized_high-interference,small-sized,high-interference,10,IncorrectRESP,d,0,0,0,0,0,21,21,21,,,,,,,,,,,,,,,261.9222824790013,None,262.4206272629999,None,264.42221650600004,None,265.1715324760007,None,265.4221733,None,265.4221733,None,d,0,0.6517174789987621,265.4221733,None,266.1040589969998,None,266.1040589969998,None,d,0.11389119299929007,266.1040589969998,None,266.2379619,None,,,,,sub-03,05/02/2001,1: Male,15/07/2023,004,1: right,2023_Jul_15_1138,[FINAL]_fmri_multiplication,2021.2.3,59.96818088287982
block5.xlsx,302.1,7.5,7.1,4 x 8,32,24,8 x 4 = 32,large-sized_high-interference,large-sized,high-interference,25,CorrectRESP,a,0,0,0,0,0,22,22,22,,,,,,,,,,,,,,,273.6384598630011,None,274.138139,None,276.1385123880009,None,276.88855396800136,None,277.13844067600076,None,277.13844067600076,None,a,0,1.7114688550009305,277.13844067600076,None,278.87126349400023,None,278.87126349400023,None,a,0.530717376,278.87126349400023,None,279.4212698,None,,,,,sub-03,05/02/2001,1: Male,15/07/2023,004,1: right,2023_Jul_15_1138,[FINAL]_fmri_multiplication,2021.2.3,59.96818088287982
block5.xlsx,316.7,7.5,10.8,6 x 6,36,13,6 x 6 = 36,large-sized_low-interference,large-sized,low-interference,4,CorrectRESP,a,0,0,0,0,0,23,23,23,,,,,,,,,,,,,,,286.52147963100106,None,287.0216376370008,None,289.0219204490004,None,289.77205605700146,None,290.02096347100087,None,290.02096347100087,None,a,0,0.6128977530006523,290.02096347100087,None,290.6550069109999,None,290.6550069109999,None,d,0.15494994899927406,290.6550069109999,None,290.83594397100023,None,,,,,sub-03,05/02/2001,1: Male,15/07/2023,004,1: right,2023_Jul_15_1138,[FINAL]_fmri_multiplication,2021.2.3,59.96818088287982
block5.xlsx,,,,,,,,,,,,,,0,0,0,0,,,,,0,0,0,0,,,,,,,,,,,,,,,,,,,,,,,,,,,,,,,,,,,,,,301.6414099400008,None,301.6414099400008,None,sub-03,05/02/2001,1: Male,15/07/2023,004,1: right,2023_Jul_15_1138,[FINAL]_fmri_multiplication,2021.2.3,59.96818088287982
block5.xlsx,,,,,,,,,,,,,,0,0,0,0,,,,,1,0,1,0,,,,,,,,,,,,,,,,,,,,,,,,,,,,,,,,,,,,,,302.65640671000074,None,302.65640671000074,None,sub-03,05/02/2001,1: Male,15/07/2023,004,1: right,2023_Jul_15_1138,[FINAL]_fmri_multiplication,2021.2.3,59.96818088287982
block5.xlsx,,,,,,,,,,,,,,0,0,0,0,,,,,2,0,2,0,,,,,,,,,,,,,,,,,,,,,,,,,,,,,,,,,,,,,,303.65524158900007,None,303.65524158900007,None,sub-03,05/02/2001,1: Male,15/07/2023,004,1: right,2023_Jul_15_1138,[FINAL]_fmri_multiplication,2021.2.3,59.96818088287982
block5.xlsx,,,,,,,,,,,,,,0,0,0,0,,,,,3,0,3,0,,,,,,,,,,,,,,,,,,,,,,,,,,,,,,,,,,,,,,304.6555183830005,None,304.6555183830005,None,sub-03,05/02/2001,1: Male,15/07/2023,004,1: right,2023_Jul_15_1138,[FINAL]_fmri_multiplication,2021.2.3,59.96818088287982
block5.xlsx,,,,,,,,,,,,,,0,0,0,0,,,,,4,0,4,0,,,,,,,,,,,,,,,,,,,,,,,,,,,,,,,,,,,,,,305.6557173750007,None,305.6557173750007,None,sub-03,05/02/2001,1: Male,15/07/2023,004,1: right,2023_Jul_15_1138,[FINAL]_fmri_multiplication,2021.2.3,59.96818088287982
block5.xlsx,,,,,,,,,,,,,,0,0,0,0,,,,,5,0,5,0,,,,,,,,,,,,,,,,,,,,,,,,,,,,,,,,,,,,,,306.6558710620011,None,306.6558710620011,None,sub-03,05/02/2001,1: Male,15/07/2023,004,1: right,2023_Jul_15_1138,[FINAL]_fmri_multiplication,2021.2.3,59.96818088287982
block5.xlsx,,,,,,,,,,,,,,0,0,0,0,,,,,6,0,6,0,,,,,,,,,,,,,,,,,,,,,,,,,,,,,,,,,,,,,,307.6543204219997,None,307.6543204219997,None,sub-03,05/02/2001,1: Male,15/07/2023,004,1: right,2023_Jul_15_1138,[FINAL]_fmri_multiplication,2021.2.3,59.96818088287982
block5.xlsx,,,,,,,,,,,,,,0,0,0,0,,,,,7,0,7,0,,,,,,,,,,,,,,,,,,,,,,,,,,,,,,,,,,,,,,308.65514384200105,None,308.65514384200105,None,sub-03,05/02/2001,1: Male,15/07/2023,004,1: right,2023_Jul_15_1138,[FINAL]_fmri_multiplication,2021.2.3,59.96818088287982
block5.xlsx,,,,,,,,,,,,,,0,0,0,0,,,,,8,0,8,0,,,,,,,,,,,,,,,,,,,,,,,,,,,,,,,,,,,,,,309.65515105099985,None,309.65515105099985,None,sub-03,05/02/2001,1: Male,15/07/2023,004,1: right,2023_Jul_15_1138,[FINAL]_fmri_multiplication,2021.2.3,59.96818088287982
block5.xlsx,,,,,,,,,,,,,,0,0,0,0,,,,,9,0,9,0,,,,,,,,,,,,,,,,,,,,,,,,,,,,,,,,,,,,,,310.6569284950001,None,310.6569284950001,None,sub-03,05/02/2001,1: Male,15/07/2023,004,1: right,2023_Jul_15_1138,[FINAL]_fmri_multiplication,2021.2.3,59.96818088287982
block5.xlsx,,,,,,,,,,,,,,0,0,0,0,,,,,10,0,10,0,,,,,,,,,,,,,,,,,,,,,,,,,,,,,,,,,,,,,,311.65486978900117,None,311.65486978900117,None,sub-03,05/02/2001,1: Male,15/07/2023,004,1: right,2023_Jul_15_1138,[FINAL]_fmri_multiplication,2021.2.3,59.96818088287982
block5.xlsx,,,,,,,,,,,,,,0,0,0,0,,,,,11,0,11,0,,,,,,,,,,,,,,,,,,,,,,,,,,,,,,,,,,,,,,312.6558553190007,None,312.6558553190007,None,sub-03,05/02/2001,1: Male,15/07/2023,004,1: right,2023_Jul_15_1138,[FINAL]_fmri_multiplication,2021.2.3,59.96818088287982
block5.xlsx,,,,,,,,,,,,,,0,0,0,0,,,,,12,0,12,0,,,,,,,,,,,,,,,,,,,,,,,,,,,,,,,,,,,,,,313.6557410490004,None,313.6557410490004,None,sub-03,05/02/2001,1: Male,15/07/2023,004,1: right,2023_Jul_15_1138,[FINAL]_fmri_multiplication,2021.2.3,59.96818088287982
block5.xlsx,,,,,,,,,,,,,,0,0,0,0,,,,,13,0,13,0,,,,,,,,,,,,,,,,,,,,,,,,,,,,,,,,,,,,,,314.65375104300074,None,314.65375104300074,None,sub-03,05/02/2001,1: Male,15/07/2023,004,1: right,2023_Jul_15_1138,[FINAL]_fmri_multiplication,2021.2.3,59.96818088287982
block5.xlsx,,,,,,,,,,,,,,0,0,0,0,,,,,14,0,14,0,,,,,,,,,,,,,,,,,,,,,,,,,,,,,,,,,,,,,,315.6541548490004,None,315.6541548490004,None,sub-03,05/02/2001,1: Male,15/07/2023,004,1: right,2023_Jul_15_1138,[FINAL]_fmri_multiplication,2021.2.3,59.96818088287982
block5.xlsx,,,,,,,,,,,,,,0,0,0,0,,,,,15,0,15,0,,,,,,,,,,,,,,,,,,,,,,,,,,,,,,,,,,,,,,316.6555288,None,316.6555288,None,sub-03,05/02/2001,1: Male,15/07/2023,004,1: right,2023_Jul_15_1138,[FINAL]_fmri_multiplication,2021.2.3,59.96818088287982
block5.xlsx,,,,,,,,,,,,,,0,0,0,0,,,,,16,0,16,0,,,,,,,,,,,,,,,,,,,,,,,,,,,,,,,,,,,,,,317.6555406690004,None,317.6555406690004,None,sub-03,05/02/2001,1: Male,15/07/2023,004,1: right,2023_Jul_15_1138,[FINAL]_fmri_multiplication,2021.2.3,59.96818088287982
block5.xlsx,,,,,,,,,,,,,,0,0,0,0,,,,,17,0,17,0,,,,,,,,,,,,,,,,,,,,,,,,,,,,,,,,,,,,,,318.6552739939998,None,318.6552739939998,None,sub-03,05/02/2001,1: Male,15/07/2023,004,1: right,2023_Jul_15_1138,[FINAL]_fmri_multiplication,2021.2.3,59.96818088287982
block5.xlsx,,,,,,,,,,,,,,0,0,0,0,,,,,18,0,18,0,,,,,,,,,,,,,,,,,,,,,,,,,,,,,,,,,,,,,,319.6554494960001,None,319.6554494960001,None,sub-03,05/02/2001,1: Male,15/07/2023,004,1: right,2023_Jul_15_1138,[FINAL]_fmri_multiplication,2021.2.3,59.96818088287982
block5.xlsx,,,,,,,,,,,,,,0,0,0,0,,,,,19,0,19,0,,,,,,,,,,,,,,,,,,,,,,,,,,,,,,,,,,,,,,320.6559413160012,None,320.6559413160012,None,sub-03,05/02/2001,1: Male,15/07/2023,004,1: right,2023_Jul_15_1138,[FINAL]_fmri_multiplication,2021.2.3,59.96818088287982
block5.xlsx,,,,,,,,,,,,,,0,0,0,0,,,,,20,0,20,0,,,,,,,,,,,,,,,,,,,,,,,,,,,,,,,,,,,,,,321.6552703240013,None,321.6552703240013,None,sub-03,05/02/2001,1: Male,15/07/2023,004,1: right,2023_Jul_15_1138,[FINAL]_fmri_multiplication,2021.2.3,59.96818088287982
block5.xlsx,,,,,,,,,,,,,,0,0,0,0,,,,,21,0,21,0,,,,,,,,,,,,,,,,,,,,,,,,,,,,,,,,,,,,,,322.6539827150009,None,322.6539827150009,None,sub-03,05/02/2001,1: Male,15/07/2023,004,1: right,2023_Jul_15_1138,[FINAL]_fmri_multiplication,2021.2.3,59.96818088287982
block5.xlsx,,,,,,,,,,,,,,0,0,0,0,,,,,22,0,22,0,,,,,,,,,,,,,,,,,,,,,,,,,,,,,,,,,,,,,,323.6563255000001,None,323.6563255000001,None,sub-03,05/02/2001,1: Male,15/07/2023,004,1: right,2023_Jul_15_1138,[FINAL]_fmri_multiplication,2021.2.3,59.96818088287982
block5.xlsx,,,,,,,,,,,,,,0,0,0,0,,,,,23,0,23,0,,,,,,,,,,,,,,,,,,,,,,,,,,,,,,,,,,,,,,324.6544943780009,None,324.6544943780009,None,sub-03,05/02/2001,1: Male,15/07/2023,004,1: right,2023_Jul_15_1138,[FINAL]_fmri_multiplication,2021.2.3,59.96818088287982
block5.xlsx,,,,,,,,,,,,,,0,0,0,0,,,,,24,0,24,0,,,,,,,,,,,,,,,,,,,,,,,,,,,,,,,,,,,,,,325.65620560200114,None,325.65620560200114,None,sub-03,05/02/2001,1: Male,15/07/2023,004,1: right,2023_Jul_15_1138,[FINAL]_fmri_multiplication,2021.2.3,59.96818088287982
block5.xlsx,,,,,,,,,,,,,,0,0,0,0,,,,,25,0,25,0,,,,,,,,,,,,,,,,,,,,,,,,,,,,,,,,,,,,,,326.65433954500077,None,326.65433954500077,None,sub-03,05/02/2001,1: Male,15/07/2023,004,1: right,2023_Jul_15_1138,[FINAL]_fmri_multiplication,2021.2.3,59.96818088287982
block5.xlsx,,,,,,,,,,,,,,0,0,0,0,,,,,26,0,26,0,,,,,,,,,,,,,,,,,,,,,,,,,,,,,,,,,,,,,,327.65449156199975,None,327.65449156199975,None,sub-03,05/02/2001,1: Male,15/07/2023,004,1: right,2023_Jul_15_1138,[FINAL]_fmri_multiplication,2021.2.3,59.96818088287982
block5.xlsx,,,,,,,,,,,,,,0,0,0,0,,,,,27,0,27,0,,,,,,,,,,,,,,,,,,,,,,,,,,,,,,,,,,,,,,328.6578604,None,328.6578604,None,sub-03,05/02/2001,1: Male,15/07/2023,004,1: right,2023_Jul_15_1138,[FINAL]_fmri_multiplication,2021.2.3,59.96818088287982
block5.xlsx,,,,,,,,,,,,,,0,0,0,0,,,,,28,0,28,0,,,,,,,,,,,,,,,,,,,,,,,,,,,,,,,,,,,,,,329.6543095369998,None,329.6543095369998,None,sub-03,05/02/2001,1: Male,15/07/2023,004,1: right,2023_Jul_15_1138,[FINAL]_fmri_multiplication,2021.2.3,59.96818088287982
block5.xlsx,,,,,,,,,,,,,,0,0,0,0,,,,,29,0,29,0,,,,,,,,,,,,,,,,,,,,,,,,,,,,,,,,,,,,,,330.6554037200003,None,330.6554037200003,None,sub-03,05/02/2001,1: Male,15/07/2023,004,1: right,2023_Jul_15_1138,[FINAL]_fmri_multiplication,2021.2.3,59.96818088287982
block5.xlsx,,,,,,,,,,,,,,0,0,0,0,,,,,,,,,,,,,,,,,,,,,,,,,,,,,,,,,,,,,,,,,,,,,,,,,,sub-03,05/02/2001,1: Male,15/07/2023,004,1: right,2023_Jul_15_1138,[FINAL]_fmri_multiplication,2021.2.3,59.96818088287982
block6.xlsx,10,7.5,4.1,6 x 5,36,14,5 x 6 = 36,large-sized_low-interference,large-sized,low-interference,6,IncorrectRESP,d,0,1,1,1,0,0,0,0,,,,,,,,,,,,,331.65659755900015,None,341.67876229600006,None,342.1536878780007,None,344.1551642579998,None,344.9053167260008,None,345.1537581540015,None,345.1537581540015,None,d,0,0.7200586239996483,345.1537581540015,None,345.9053122240002,None,345.9053122240002,None,d,0.088647495,345.9053122240002,None,346.02181471400036,None,,,,,sub-03,05/02/2001,1: Male,15/07/2023,004,1: right,2023_Jul_15_1138,[FINAL]_fmri_multiplication,2021.2.3,59.96818088287982
block6.xlsx,21.6,7.5,7.2,2 x 6,10,6,6 x 2 = 10,small-sized_low-interference,small-sized,low-interference,3,IncorrectRESP,d,0,1,1,1,0,1,1,1,,,,,,,,,,,,,,,350.1218211230007,None,350.6217400229998,None,352.6217328769999,None,353.3717155049999,None,353.6221471530007,None,353.6221471530007,None,d,0,0.6917373770011181,353.6221471530007,None,354.3380485329999,None,354.3380485329999,None,d,0.087933786,354.3380485329999,None,354.4547101870012,None,,,,,sub-03,05/02/2001,1: Male,15/07/2023,004,1: right,2023_Jul_15_1138,[FINAL]_fmri_multiplication,2021.2.3,59.96818088287982
block6.xlsx,36.3,7.5,13.8,6 x 7,42,23,7 x 6 = 42,large-sized_high-interference,large-sized,high-interference,22,CorrectRESP,a,0,1,1,1,0,2,2,2,,,,,,,,,,,,,,,361.65558948200123,None,362.15558890800094,None,364.1553906019999,None,364.9056953640011,None,365.15540652300115,None,365.15540652300115,None,a,0,0.6704905509996024,365.15540652300115,None,365.8555858360014,None,365.8555858360014,None,d,0.13041485599933367,365.8555858360014,None,366.00522217599973,None,,,,,sub-03,05/02/2001,1: Male,15/07/2023,004,1: right,2023_Jul_15_1138,[FINAL]_fmri_multiplication,2021.2.3,59.96818088287982
block6.xlsx,57.6,7.5,3.7,3 x 7,21,11,7 x 3 = 21,small-sized_high-interference,small-sized,high-interference,13,CorrectRESP,a,0,1,1,1,0,3,3,3,,,,,,,,,,,,,,,379.8047156850007,None,380.30365424000047,None,382.30518241000027,None,383.05505356400135,None,383.30531769200024,None,383.30531769200024,None,a,0,0.6246814419992006,383.30531769200024,None,383.95476083200083,None,383.95476083200083,None,d,0.16714828000112902,383.95476083200083,None,384.15524410800026,None,,,,,sub-03,05/02/2001,1: Male,15/07/2023,004,1: right,2023_Jul_15_1138,[FINAL]_fmri_multiplication,2021.2.3,59.96818088287982
block6.xlsx,68.8,7.5,7.8,2 x 7,12,1,7 x 2 = 12,small-sized_low-interference,small-sized,low-interference,4,IncorrectRESP,d,0,1,1,1,0,4,4,4,,,,,,,,,,,,,,,387.85476201799975,None,388.35490854400086,None,390.3551543100002,None,391.10534493200066,None,391.3555519040001,None,391.3555519040001,None,d,0,0.6303871340005571,391.3555519040001,None,392.0047963190009,None,392.0047963190009,None,d,0.07711094,392.0047963190009,None,392.104217,None,,,,,sub-03,05/02/2001,1: Male,15/07/2023,004,1: right,2023_Jul_15_1138,[FINAL]_fmri_multiplication,2021.2.3,59.96818088287982
block6.xlsx,84.1,7.5,8.6,3 x 9,24,19,9 x 3 = 24,large-sized_high-interference,large-sized,high-interference,9,IncorrectRESP,d,0,1,1,1,0,5,5,5,,,,,,,,,,,,,,,399.90561473300113,None,400.4040314,None,402.4051360459998,None,403.15542821000054,None,403.4063630210003,None,403.4063630210003,None,d,0,1.2195228000000498,403.4063630210003,None,404.6555296130009,None,404.6555296130009,None,a,0.6824967390002712,404.6555296130009,None,405.3555653980002,None,,,,,sub-03,05/02/2001,1: Male,15/07/2023,004,1: right,2023_Jul_15_1138,[FINAL]_fmri_multiplication,2021.2.3,59.96818088287982
block6.xlsx,100.2,7.5,3.3,4 x 6,24,10,6 x 4 = 24,small-sized_high-interference,small-sized,high-interference,12,CorrectRESP,a,0,1,1,1,0,6,6,6,,,,,,,,,,,,,,,413.9552129350013,None,414.45509093000146,None,416.45527025200136,None,417.20522555500065,None,417.45382836499994,None,417.45382836499994,None,a,0,0.5719548859997303,417.45382836499994,None,418.05486866700085,None,418.05486866700085,None,d,0.43502142099896446,418.05486866700085,None,418.52165493699977,None,,,,,sub-03,05/02/2001,1: Male,15/07/2023,004,1: right,2023_Jul_15_1138,[FINAL]_fmri_multiplication,2021.2.3,59.96818088287982
block6.xlsx,111,7.5,6.3,9 x 2,16,2,2 x 9 = 16,small-sized_low-interference,small-sized,low-interference,7,IncorrectRESP,d,0,1,1,1,0,7,7,7,,,,,,,,,,,,,,,421.8213476710007,None,422.3217449140011,None,424.32168926600025,None,425.07191358599994,None,425.32047982600125,None,425.32047982600125,None,d,0,1.137374803000057,425.32047982600125,None,426.48831549200077,None,426.48831549200077,None,d,0.3536828690012044,426.48831549200077,None,426.8707287040015,None,,,,,sub-03,05/02/2001,1: Male,15/07/2023,004,1: right,2023_Jul_15_1138,[FINAL]_fmri_multiplication,2021.2.3,59.96818088287982
block6.xlsx,124.8,7.5,3.1,6 x 6,30,13,6 x 6 = 30,large-sized_low-interference,large-sized,low-interference,4,IncorrectRESP,d,0,1,1,1,0,8,8,8,,,,,,,,,,,,,,,433.1723605,None,433.67199167299987,None,435.67228587499994,None,436.4223542670006,None,436.6730472400013,None,436.6730472400013,None,d,0,0.544906497,436.6730472400013,None,437.2409477990004,None,437.2409477990004,None,d,0.088874948,437.2409477990004,None,437.3547357000007,None,,,,,sub-03,05/02/2001,1: Male,15/07/2023,004,1: right,2023_Jul_15_1138,[FINAL]_fmri_multiplication,2021.2.3,59.96818088287982
block6.xlsx,135.4,7.5,2.7,5 x 4,16,8,4 x 5 = 16,small-sized_high-interference,small-sized,high-interference,8,IncorrectRESP,d,0,1,1,1,0,9,9,9,,,,,,,,,,,,,,,440.4557071950003,None,440.9547083430007,None,442.95515681100005,None,443.7050657710006,None,443.9551776790013,None,443.9551776790013,None,d,0,0.5027113080013805,443.9551776790013,None,444.4882080340012,None,444.4882080340012,None,d,0.073792614,444.4882080340012,None,444.5881723070015,None,,,,,sub-03,05/02/2001,1: Male,15/07/2023,004,1: right,2023_Jul_15_1138,[FINAL]_fmri_multiplication,2021.2.3,59.96818088287982
block6.xlsx,145.6,7.5,5.1,5 x 5,25,3,5 x 5 = 25,small-sized_low-interference,small-sized,low-interference,3,CorrectRESP,a,0,1,1,1,0,10,10,10,,,,,,,,,,,,,,,447.28851734900127,None,447.78815285900055,None,449.78817429100127,None,450.53857548199994,None,450.7877197,None,450.7877197,None,a,0,0.598265522,450.7877197,None,451.4050628,None,451.4050628,None,d,0.1490015340004902,451.4050628,None,451.5711774170013,None,,,,,sub-03,05/02/2001,1: Male,15/07/2023,004,1: right,2023_Jul_15_1138,[FINAL]_fmri_multiplication,2021.2.3,59.96818088287982
block6.xlsx,158.2,7.5,2.9,7 x 7,56,18,7 x 7 = 56,large-sized_low-interference,large-sized,low-interference,7,IncorrectRESP,d,0,1,1,1,0,11,11,11,,,,,,,,,,,,,,,456.67178505800075,None,457.1703733710001,None,459.17177923800045,None,459.92172815100093,None,460.17098514700047,None,460.17098514700047,None,d,0,0.5188921600001777,460.17098514700047,None,460.72028753500126,None,460.72028753500126,None,d,0.073613006,460.72028753500126,None,460.8213665710009,None,,,,,sub-03,05/02/2001,1: Male,15/07/2023,004,1: right,2023_Jul_15_1138,[FINAL]_fmri_multiplication,2021.2.3,59.96818088287982
block6.xlsx,168.6,7.5,5.7,3 x 6,15,7,6 x 3 = 15,small-sized_high-interference,small-sized,high-interference,8,IncorrectRESP,d,0,1,1,1,0,12,12,12,,,,,,,,,,,,,,,463.72201354699973,None,464.2203780529999,None,466.2221281350012,None,466.9694174870001,None,467.21450302999983,None,467.21450302999983,None,d,0,0.65941527,467.21450302999983,None,467.9058139,None,467.9058139,None,d,0.11218092700073612,467.9058139,None,468.0385047400014,None,,,,,sub-03,05/02/2001,1: Male,15/07/2023,004,1: right,2023_Jul_15_1138,[FINAL]_fmri_multiplication,2021.2.3,59.96818088287982
block6.xlsx,181.8,7.5,3,2 x 8,16,5,8 x 2 = 16,small-sized_low-interference,small-sized,low-interference,7,CorrectRESP,a,0,1,1,1,0,13,13,13,,,,,,,,,,,,,,,473.7389108820007,None,474.23892967400025,None,476.23865742700036,None,476.9885645100003,None,477.23856924600113,None,477.23856924600113,None,a,0,0.7473787639992224,477.23856924600113,None,478.00458402700133,None,478.00458402700133,None,d,0.23737354799959576,478.00458402700133,None,478.2725398,None,,,,,sub-03,05/02/2001,1: Male,15/07/2023,004,1: right,2023_Jul_15_1138,[FINAL]_fmri_multiplication,2021.2.3,59.96818088287982
block6.xlsx,192.3,7.5,5.9,5 x 9,45,15,9 x 5 = 45,large-sized_low-interference,large-sized,low-interference,6,CorrectRESP,a,0,1,1,1,0,14,14,14,,,,,,,,,,,,,,,481.27207063100104,None,481.7716174750003,None,483.7718132150003,None,484.52172076900024,None,484.7716373050007,None,484.7716373050007,None,a,0,0.5583496219987865,484.7716373050007,None,485.35444858700066,None,485.35444858700066,None,d,0.4714462789997924,485.35444858700066,None,485.85508657300124,None,,,,,sub-03,05/02/2001,1: Male,15/07/2023,004,1: right,2023_Jul_15_1138,[FINAL]_fmri_multiplication,2021.2.3,59.96818088287982
block6.xlsx,205.7,7.5,2.1,4 x 3,12,9,3 x 4 = 12,small-sized_high-interference,small-sized,high-interference,10,CorrectRESP,a,0,1,1,1,0,15,15,15,,,,,,,,,,,,,,,491.7550886879999,None,492.2548722339998,None,494.25519020200045,None,495.0051111,None,495.25505051800064,None,495.25505051800064,None,a,0,0.7229024290008965,495.25505051800064,None,496.00449384400054,None,496.00449384400054,None,d,0.8054887460002647,496.00449384400054,None,496.83850787200026,None,,,,,sub-03,05/02/2001,1: Male,15/07/2023,004,1: right,2023_Jul_15_1138,[FINAL]_fmri_multiplication,2021.2.3,59.96818088287982
block6.xlsx,215.3,7.5,9.9,7 x 8,56,22,8 x 7 = 56,large-sized_high-interference,large-sized,high-interference,9,CorrectRESP,a,0,1,1,1,0,16,16,16,,,,,,,,,,,,,,,498.93869555200035,None,499.4384795020014,None,501.43784628400135,None,502.20305813600135,None,502.4559562989998,None,502.4559562989998,None,a,0,1.177977044000727,502.4559562989998,None,503.65537141999994,None,503.65537141999994,None,d,0.714635858,503.65537141999994,None,504.3884719530015,None,,,,,sub-03,05/02/2001,1: Male,15/07/2023,004,1: right,2023_Jul_15_1138,[FINAL]_fmri_multiplication,2021.2.3,59.96818088287982
block6.xlsx,232.7,7.5,2.2,8 x 3,21,12,3 x 8 = 21,small-sized_high-interference,small-sized,high-interference,13,IncorrectRESP,d,0,1,1,1,0,17,17,17,,,,,,,,,,,,,,,514.2884204190013,None,514.7881286700012,None,516.7885592220009,None,517.5386485920008,None,517.7888620579997,None,517.7888620579997,None,d,0,0.5811111120001442,517.7888620579997,None,518.3878929,None,518.3878929,None,d,0.19010597200031043,518.3878929,None,518.6049697990002,None,,,,,sub-03,05/02/2001,1: Male,15/07/2023,004,1: right,2023_Jul_15_1138,[FINAL]_fmri_multiplication,2021.2.3,59.96818088287982
block6.xlsx,242.4,7.5,7.9,9 x 9,81,16,9 x 9 = 81,large-sized_low-interference,large-sized,low-interference,6,CorrectRESP,a,0,1,1,1,0,18,18,18,,,,,,,,,,,,,,,520.8050473650001,None,521.3035229850011,None,523.3051958670003,None,524.0552112220012,None,524.3049252790006,None,524.3049252790006,None,a,0,0.5050314689997322,524.3049252790006,None,524.8371025770011,None,524.8371025770011,None,d,0.4288255539995589,524.8371025770011,None,525.2879722329999,None,,,,,sub-03,05/02/2001,1: Male,15/07/2023,004,1: right,2023_Jul_15_1138,[FINAL]_fmri_multiplication,2021.2.3,59.96818088287982
block6.xlsx,257.8,7.5,8.3,9 x 4,32,20,4 x 9 = 32,large-sized_high-interference,large-sized,high-interference,9,IncorrectRESP,d,0,1,1,1,0,19,19,19,,,,,,,,,,,,,,,533.1885289740003,None,533.6887580860002,None,535.6887822,None,536.4386646780004,None,536.6893306780003,None,536.6893306780003,None,d,0,1.1525758440002392,536.6893306780003,None,537.8634902520007,None,537.8634902520007,None,d,0.19442947500101582,537.8634902520007,None,538.0740271930008,None,,,,,sub-03,05/02/2001,1: Male,15/07/2023,004,1: right,2023_Jul_15_1138,[FINAL]_fmri_multiplication,2021.2.3,59.96818088287982
block6.xlsx,273.6,7.5,12.1,5 x 7,35,17,7 x 5 = 35,large-sized_low-interference,large-sized,low-interference,7,CorrectRESP,a,0,1,1,1,0,20,20,20,,,,,,,,,,,,,,,546.3879728660013,None,546.8880433,None,548.8884481390014,None,549.638413,None,549.8881093190012,None,549.8881093190012,None,a,0,0.8498737350000738,549.8881093190012,None,550.7551580420004,None,550.7551580420004,None,d,0.18284184499862022,550.7551580420004,None,550.9551611000006,None,,,,,sub-03,05/02/2001,1: Male,15/07/2023,004,1: right,2023_Jul_15_1138,[FINAL]_fmri_multiplication,2021.2.3,59.96818088287982
block6.xlsx,293.2,7.5,4.1,4 x 8,28,24,8 x 4 = 28,large-sized_high-interference,large-sized,high-interference,25,IncorrectRESP,d,0,1,1,1,0,21,21,21,,,,,,,,,,,,,,,563.0546785759998,None,563.5547404190002,None,565.5551063380008,None,566.3046495730014,None,566.5547693799999,None,566.5547693799999,None,d,0,0.6552292460000899,566.5547693799999,None,567.2383949680006,None,567.2383949680006,None,d,0.23542736599847558,567.2383949680006,None,567.5033039010013,None,,,,,sub-03,05/02/2001,1: Male,15/07/2023,004,1: right,2023_Jul_15_1138,[FINAL]_fmri_multiplication,2021.2.3,59.96818088287982
block6.xlsx,304.8,7.5,6.7,4 x 4,16,4,4 x 4 = 16,small-sized_low-interference,small-sized,low-interference,5,CorrectRESP,a,0,1,1,1,0,22,22,22,,,,,,,,,,,,,,,571.6049602750008,None,572.1188234370002,None,574.1224487020008,None,574.8721954,None,575.1223385220001,None,575.1223385220001,None,a,0,0.6316463310013205,575.1223385220001,None,575.7705855370004,None,575.7705855370004,None,d,0.1833745900003123,575.7705855370004,None,575.9718351920001,None,,,,,sub-03,05/02/2001,1: Male,15/07/2023,004,1: right,2023_Jul_15_1138,[FINAL]_fmri_multiplication,2021.2.3,59.96818088287982
block6.xlsx,319,7.5,8.5,8 x 5,40,21,5 x 8 = 40,large-sized_high-interference,large-sized,high-interference,9,CorrectRESP,a,0,1,1,1,0,23,23,23,,,,,,,,,,,,,,,582.6726172890012,None,583.1715474,None,585.1719082540003,None,585.9220264390005,None,586.1722631510002,None,586.1722631510002,None,a,0,0.5016271479998977,586.1722631510002,None,586.7050591759998,None,586.7050591759998,None,d,0.19277798799885204,586.7050591759998,None,586.9212963730006,None,,,,,sub-03,05/02/2001,1: Male,15/07/2023,004,1: right,2023_Jul_15_1138,[FINAL]_fmri_multiplication,2021.2.3,59.96818088287982
block6.xlsx,,,,,,,,,,,,,,0,1,1,1,,,,,0,0,0,0,,,,,,,,,,,,,,,,,,,,,,,,,,,,,,,,,,,,,,595.4242405130008,None,595.4242405130008,None,sub-03,05/02/2001,1: Male,15/07/2023,004,1: right,2023_Jul_15_1138,[FINAL]_fmri_multiplication,2021.2.3,59.96818088287982
block6.xlsx,,,,,,,,,,,,,,0,1,1,1,,,,,1,0,1,0,,,,,,,,,,,,,,,,,,,,,,,,,,,,,,,,,,,,,,596.4377177440001,None,596.4377177440001,None,sub-03,05/02/2001,1: Male,15/07/2023,004,1: right,2023_Jul_15_1138,[FINAL]_fmri_multiplication,2021.2.3,59.96818088287982
block6.xlsx,,,,,,,,,,,,,,0,1,1,1,,,,,2,0,2,0,,,,,,,,,,,,,,,,,,,,,,,,,,,,,,,,,,,,,,597.4386642200006,None,597.4386642200006,None,sub-03,05/02/2001,1: Male,15/07/2023,004,1: right,2023_Jul_15_1138,[FINAL]_fmri_multiplication,2021.2.3,59.96818088287982
block6.xlsx,,,,,,,,,,,,,,0,1,1,1,,,,,3,0,3,0,,,,,,,,,,,,,,,,,,,,,,,,,,,,,,,,,,,,,,598.4396134580002,None,598.4396134580002,None,sub-03,05/02/2001,1: Male,15/07/2023,004,1: right,2023_Jul_15_1138,[FINAL]_fmri_multiplication,2021.2.3,59.96818088287982
block6.xlsx,,,,,,,,,,,,,,0,1,1,1,,,,,4,0,4,0,,,,,,,,,,,,,,,,,,,,,,,,,,,,,,,,,,,,,,599.4399009400004,None,599.4399009400004,None,sub-03,05/02/2001,1: Male,15/07/2023,004,1: right,2023_Jul_15_1138,[FINAL]_fmri_multiplication,2021.2.3,59.96818088287982
block6.xlsx,,,,,,,,,,,,,,0,1,1,1,,,,,5,0,5,0,,,,,,,,,,,,,,,,,,,,,,,,,,,,,,,,,,,,,,600.4391159830011,None,600.4391159830011,None,sub-03,05/02/2001,1: Male,15/07/2023,004,1: right,2023_Jul_15_1138,[FINAL]_fmri_multiplication,2021.2.3,59.96818088287982
block6.xlsx,,,,,,,,,,,,,,0,1,1,1,,,,,6,0,6,0,,,,,,,,,,,,,,,,,,,,,,,,,,,,,,,,,,,,,,601.4404472920014,None,601.4404472920014,None,sub-03,05/02/2001,1: Male,15/07/2023,004,1: right,2023_Jul_15_1138,[FINAL]_fmri_multiplication,2021.2.3,59.96818088287982
block6.xlsx,,,,,,,,,,,,,,0,1,1,1,,,,,7,0,7,0,,,,,,,,,,,,,,,,,,,,,,,,,,,,,,,,,,,,,,602.4402023830007,None,602.4402023830007,None,sub-03,05/02/2001,1: Male,15/07/2023,004,1: right,2023_Jul_15_1138,[FINAL]_fmri_multiplication,2021.2.3,59.96818088287982
block6.xlsx,,,,,,,,,,,,,,0,1,1,1,,,,,8,0,8,0,,,,,,,,,,,,,,,,,,,,,,,,,,,,,,,,,,,,,,603.4405452940009,None,603.4405452940009,None,sub-03,05/02/2001,1: Male,15/07/2023,004,1: right,2023_Jul_15_1138,[FINAL]_fmri_multiplication,2021.2.3,59.96818088287982
block6.xlsx,,,,,,,,,,,,,,0,1,1,1,,,,,9,0,9,0,,,,,,,,,,,,,,,,,,,,,,,,,,,,,,,,,,,,,,604.4401815,None,604.4401815,None,sub-03,05/02/2001,1: Male,15/07/2023,004,1: right,2023_Jul_15_1138,[FINAL]_fmri_multiplication,2021.2.3,59.96818088287982
block6.xlsx,,,,,,,,,,,,,,0,1,1,1,,,,,10,0,10,0,,,,,,,,,,,,,,,,,,,,,,,,,,,,,,,,,,,,,,605.4384703,None,605.4384703,None,sub-03,05/02/2001,1: Male,15/07/2023,004,1: right,2023_Jul_15_1138,[FINAL]_fmri_multiplication,2021.2.3,59.96818088287982
block6.xlsx,,,,,,,,,,,,,,0,1,1,1,,,,,11,0,11,0,,,,,,,,,,,,,,,,,,,,,,,,,,,,,,,,,,,,,,606.4385814249999,None,606.4385814249999,None,sub-03,05/02/2001,1: Male,15/07/2023,004,1: right,2023_Jul_15_1138,[FINAL]_fmri_multiplication,2021.2.3,59.96818088287982
block6.xlsx,,,,,,,,,,,,,,0,1,1,1,,,,,12,0,12,0,,,,,,,,,,,,,,,,,,,,,,,,,,,,,,,,,,,,,,607.4260662640008,None,607.4260662640008,None,sub-03,05/02/2001,1: Male,15/07/2023,004,1: right,2023_Jul_15_1138,[FINAL]_fmri_multiplication,2021.2.3,59.96818088287982
block6.xlsx,,,,,,,,,,,,,,0,1,1,1,,,,,13,0,13,0,,,,,,,,,,,,,,,,,,,,,,,,,,,,,,,,,,,,,,608.4387217910007,None,608.4387217910007,None,sub-03,05/02/2001,1: Male,15/07/2023,004,1: right,2023_Jul_15_1138,[FINAL]_fmri_multiplication,2021.2.3,59.96818088287982
block6.xlsx,,,,,,,,,,,,,,0,1,1,1,,,,,14,0,14,0,,,,,,,,,,,,,,,,,,,,,,,,,,,,,,,,,,,,,,609.4411186010002,None,609.4411186010002,None,sub-03,05/02/2001,1: Male,15/07/2023,004,1: right,2023_Jul_15_1138,[FINAL]_fmri_multiplication,2021.2.3,59.96818088287982
block6.xlsx,,,,,,,,,,,,,,0,1,1,1,,,,,15,0,15,0,,,,,,,,,,,,,,,,,,,,,,,,,,,,,,,,,,,,,,610.4389328690013,None,610.4389328690013,None,sub-03,05/02/2001,1: Male,15/07/2023,004,1: right,2023_Jul_15_1138,[FINAL]_fmri_multiplication,2021.2.3,59.96818088287982
block6.xlsx,,,,,,,,,,,,,,0,1,1,1,,,,,16,0,16,0,,,,,,,,,,,,,,,,,,,,,,,,,,,,,,,,,,,,,,611.4413580070013,None,611.4413580070013,None,sub-03,05/02/2001,1: Male,15/07/2023,004,1: right,2023_Jul_15_1138,[FINAL]_fmri_multiplication,2021.2.3,59.96818088287982
block6.xlsx,,,,,,,,,,,,,,0,1,1,1,,,,,17,0,17,0,,,,,,,,,,,,,,,,,,,,,,,,,,,,,,,,,,,,,,612.4414542780014,None,612.4414542780014,None,sub-03,05/02/2001,1: Male,15/07/2023,004,1: right,2023_Jul_15_1138,[FINAL]_fmri_multiplication,2021.2.3,59.96818088287982
block6.xlsx,,,,,,,,,,,,,,0,1,1,1,,,,,18,0,18,0,,,,,,,,,,,,,,,,,,,,,,,,,,,,,,,,,,,,,,613.4403287490004,None,613.4403287490004,None,sub-03,05/02/2001,1: Male,15/07/2023,004,1: right,2023_Jul_15_1138,[FINAL]_fmri_multiplication,2021.2.3,59.96818088287982
block6.xlsx,,,,,,,,,,,,,,0,1,1,1,,,,,19,0,19,0,,,,,,,,,,,,,,,,,,,,,,,,,,,,,,,,,,,,,,614.4409015210003,None,614.4409015210003,None,sub-03,05/02/2001,1: Male,15/07/2023,004,1: right,2023_Jul_15_1138,[FINAL]_fmri_multiplication,2021.2.3,59.96818088287982
block6.xlsx,,,,,,,,,,,,,,0,1,1,1,,,,,20,0,20,0,,,,,,,,,,,,,,,,,,,,,,,,,,,,,,,,,,,,,,615.4405191590013,None,615.4405191590013,None,sub-03,05/02/2001,1: Male,15/07/2023,004,1: right,2023_Jul_15_1138,[FINAL]_fmri_multiplication,2021.2.3,59.96818088287982
block6.xlsx,,,,,,,,,,,,,,0,1,1,1,,,,,21,0,21,0,,,,,,,,,,,,,,,,,,,,,,,,,,,,,,,,,,,,,,616.4386294730011,None,616.4386294730011,None,sub-03,05/02/2001,1: Male,15/07/2023,004,1: right,2023_Jul_15_1138,[FINAL]_fmri_multiplication,2021.2.3,59.96818088287982
block6.xlsx,,,,,,,,,,,,,,0,1,1,1,,,,,22,0,22,0,,,,,,,,,,,,,,,,,,,,,,,,,,,,,,,,,,,,,,617.4383703720014,None,617.4383703720014,None,sub-03,05/02/2001,1: Male,15/07/2023,004,1: right,2023_Jul_15_1138,[FINAL]_fmri_multiplication,2021.2.3,59.96818088287982
block6.xlsx,,,,,,,,,,,,,,0,1,1,1,,,,,23,0,23,0,,,,,,,,,,,,,,,,,,,,,,,,,,,,,,,,,,,,,,618.4380754250014,None,618.4380754250014,None,sub-03,05/02/2001,1: Male,15/07/2023,004,1: right,2023_Jul_15_1138,[FINAL]_fmri_multiplication,2021.2.3,59.96818088287982
block6.xlsx,,,,,,,,,,,,,,0,1,1,1,,,,,24,0,24,0,,,,,,,,,,,,,,,,,,,,,,,,,,,,,,,,,,,,,,619.4376238290006,None,619.4376238290006,None,sub-03,05/02/2001,1: Male,15/07/2023,004,1: right,2023_Jul_15_1138,[FINAL]_fmri_multiplication,2021.2.3,59.96818088287982
block6.xlsx,,,,,,,,,,,,,,0,1,1,1,,,,,25,0,25,0,,,,,,,,,,,,,,,,,,,,,,,,,,,,,,,,,,,,,,620.4385396170001,None,620.4385396170001,None,sub-03,05/02/2001,1: Male,15/07/2023,004,1: right,2023_Jul_15_1138,[FINAL]_fmri_multiplication,2021.2.3,59.96818088287982
block6.xlsx,,,,,,,,,,,,,,0,1,1,1,,,,,26,0,26,0,,,,,,,,,,,,,,,,,,,,,,,,,,,,,,,,,,,,,,621.4384493380003,None,621.4384493380003,None,sub-03,05/02/2001,1: Male,15/07/2023,004,1: right,2023_Jul_15_1138,[FINAL]_fmri_multiplication,2021.2.3,59.96818088287982
block6.xlsx,,,,,,,,,,,,,,0,1,1,1,,,,,27,0,27,0,,,,,,,,,,,,,,,,,,,,,,,,,,,,,,,,,,,,,,622.4375785,None,622.4375785,None,sub-03,05/02/2001,1: Male,15/07/2023,004,1: right,2023_Jul_15_1138,[FINAL]_fmri_multiplication,2021.2.3,59.96818088287982
block6.xlsx,,,,,,,,,,,,,,0,1,1,1,,,,,28,0,28,0,,,,,,,,,,,,,,,,,,,,,,,,,,,,,,,,,,,,,,623.4372119620002,None,623.4372119620002,None,sub-03,05/02/2001,1: Male,15/07/2023,004,1: right,2023_Jul_15_1138,[FINAL]_fmri_multiplication,2021.2.3,59.96818088287982
block6.xlsx,,,,,,,,,,,,,,0,1,1,1,,,,,29,0,29,0,,,,,,,,,,,,,,,,,,,,,,,,,,,,,,,,,,,,,,624.4383231400006,None,624.4383231400006,None,sub-03,05/02/2001,1: Male,15/07/2023,004,1: right,2023_Jul_15_1138,[FINAL]_fmri_multiplication,2021.2.3,59.96818088287982
block6.xlsx,,,,,,,,,,,,,,0,1,1,1,,,,,,,,,,,,,,,,,,,,,,,,,,,,,,,,,,,,,,,,,,,,,,,,,,sub-03,05/02/2001,1: Male,15/07/2023,004,1: right,2023_Jul_15_1138,[FINAL]_fmri_multiplication,2021.2.3,59.96818088287982
block7.xlsx,10,7.5,4,2 x 7,14,1,7 x 2 = 14,small-sized_low-interference,small-sized,low-interference,4,CorrectRESP,a,0,2,2,2,0,0,0,0,,,,,,,,,,,,,625.4396411220005,None,635.4621834760001,None,635.9398120559999,None,637.9385617740008,None,638.6885368540006,None,638.9398925510013,None,638.9398925510013,None,a,0,0.5500228599994443,638.9398925510013,None,639.5224611810008,None,639.5224611810008,None,d,0.3514475880001555,639.5224611810008,None,639.9052946010015,None,,,,,sub-03,05/02/2001,1: Male,15/07/2023,004,1: right,2023_Jul_15_1138,[FINAL]_fmri_multiplication,2021.2.3,59.96818088287982
block7.xlsx,21.5,7.5,14.2,3 x 6,15,7,6 x 3 = 15,small-sized_high-interference,small-sized,high-interference,8,IncorrectRESP,d,0,2,2,2,0,1,1,1,,,,,,,,,,,,,,,643.9058599400014,None,644.405568,None,646.4056586100014,None,647.1555037950002,None,647.4220025270006,None,647.4220025270006,None,d,0,1.1000888319995283,647.4220025270006,None,648.5389285680012,None,648.5389285680012,None,d,0.29500488500161737,648.5389285680012,None,648.8552381050013,None,,,,,sub-03,05/02/2001,1: Male,15/07/2023,004,1: right,2023_Jul_15_1138,[FINAL]_fmri_multiplication,2021.2.3,59.96818088287982
block7.xlsx,43.2,7.5,5.1,2 x 7,12,1,7 x 2 = 12,small-sized_low-interference,small-sized,low-interference,4,IncorrectRESP,d,0,2,2,2,0,2,2,2,,,,,,,,,,,,,,,663.0554159560015,None,663.5549151260002,None,665.5552251879999,None,666.3052974980001,None,666.5548573080014,None,666.5548573080014,None,d,0,0.8551024959997449,666.5548573080014,None,667.4384418610007,None,667.4384418610007,None,d,0.15549985700090474,667.4384418610007,None,667.6212307559999,None,,,,,sub-03,05/02/2001,1: Male,15/07/2023,004,1: right,2023_Jul_15_1138,[FINAL]_fmri_multiplication,2021.2.3,59.96818088287982
block7.xlsx,55.8,7.5,3.4,5 x 9,40,15,9 x 5 = 40,large-sized_low-interference,large-sized,low-interference,6,IncorrectRESP,d,0,2,2,2,0,3,3,3,,,,,,,,,,,,,,,672.7217360180002,None,673.2214234710009,None,675.2219594030012,None,675.9719800809999,None,676.2227751730006,None,676.2227751730006,None,d,0,0.7312572090013418,676.2227751730006,None,676.9717064,None,676.9717064,None,d,0.7983203759995376,676.9717064,None,677.7855745,None,,,,,sub-03,05/02/2001,1: Male,15/07/2023,004,1: right,2023_Jul_15_1138,[FINAL]_fmri_multiplication,2021.2.3,59.96818088287982
block7.xlsx,66.7,7.5,2.9,5 x 5,30,3,5 x 5 = 30,small-sized_low-interference,small-sized,low-interference,3,IncorrectRESP,d,0,2,2,2,0,4,4,4,,,,,,,,,,,,,,,681.1877374,None,681.7032913900002,None,683.7045891060006,None,684.4389335020005,None,684.7068458640006,None,684.7068458640006,None,d,0,0.839134505,684.7068458640006,None,685.5763261760003,None,685.5763261760003,None,d,0.17772119999972347,685.5763261760003,None,685.7715021880013,None,,,,,sub-03,05/02/2001,1: Male,15/07/2023,004,1: right,2023_Jul_15_1138,[FINAL]_fmri_multiplication,2021.2.3,59.96818088287982
block7.xlsx,77.1,7.5,13.9,5 x 7,40,17,7 x 5 = 40,large-sized_low-interference,large-sized,low-interference,7,IncorrectRESP,d,0,2,2,2,0,5,5,5,,,,,,,,,,,,,,,688.6720862340007,None,689.1711674620001,None,691.1715706539999,None,691.9221347390012,None,692.1721983340012,None,692.1721983340012,None,d,0,0.7657285500008584,692.1721983340012,None,692.9536759940002,None,692.9536759940002,None,d,0.16813466699932178,692.9536759940002,None,693.1382805210014,None,,,,,sub-03,05/02/2001,1: Male,15/07/2023,004,1: right,2023_Jul_15_1138,[FINAL]_fmri_multiplication,2021.2.3,59.96818088287982
block7.xlsx,98.5,7.5,2.6,2 x 8,16,5,8 x 2 = 16,small-sized_low-interference,small-sized,low-interference,7,CorrectRESP,a,0,2,2,2,0,6,6,6,,,,,,,,,,,,,,,707.0381024480012,None,707.5394826,None,709.5547197320011,None,710.3053960880006,None,710.5554165089998,None,710.5554165089998,None,a,0,0.6385857229997782,710.5554165089998,None,711.2218184140002,None,711.2218184140002,None,d,0.21209103299952403,711.2218184140002,None,711.4549824900005,None,,,,,sub-03,05/02/2001,1: Male,15/07/2023,004,1: right,2023_Jul_15_1138,[FINAL]_fmri_multiplication,2021.2.3,59.96818088287982
block7.xlsx,108.6,7.5,11.6,3 x 6,18,7,6 x 3 = 18,small-sized_high-interference,small-sized,high-interference,8,CorrectRESP,a,0,2,2,2,0,7,7,7,,,,,,,,,,,,,,,714.0683833,None,714.57281,None,716.5722895710005,None,717.3221745580013,None,717.5729775560012,None,717.5729775560012,None,a,0,0.8289999829994485,717.5729775560012,None,718.4220719310015,None,718.4220719310015,None,d,0.21183454200036067,718.4220719310015,None,718.6551434,None,,,,,sub-03,05/02/2001,1: Male,15/07/2023,004,1: right,2023_Jul_15_1138,[FINAL]_fmri_multiplication,2021.2.3,59.96818088287982
block7.xlsx,127.7,7.5,5,5 x 5,25,3,5 x 5 = 25,small-sized_low-interference,small-sized,low-interference,3,CorrectRESP,a,0,2,2,2,0,8,8,8,,,,,,,,,,,,,,,730.2551968820007,None,730.7546438420013,None,732.7551750350012,None,733.5046245220001,None,733.7539123,None,733.7539123,None,a,0,0.5920147710003221,733.7539123,None,734.3713983200014,None,734.3713983200014,None,d,0.19062069300161966,734.3713983200014,None,734.5881795510013,None,,,,,sub-03,05/02/2001,1: Male,15/07/2023,004,1: right,2023_Jul_15_1138,[FINAL]_fmri_multiplication,2021.2.3,59.96818088287982
block7.xlsx,140.2,7.5,2.8,6 x 6,36,13,6 x 6 = 36,large-sized_low-interference,large-sized,low-interference,4,CorrectRESP,a,0,2,2,2,0,9,9,9,,,,,,,,,,,,,,,739.5880338970001,None,740.0882381,None,742.0884723070012,None,742.8385320010002,None,743.0882218810002,None,743.0882218810002,None,a,0,1.1456651960015733,743.0882218810002,None,744.2548388,None,744.2548388,None,d,0.23507851300018956,744.2548388,None,744.5214464190012,None,,,,,sub-03,05/02/2001,1: Male,15/07/2023,004,1: right,2023_Jul_15_1138,[FINAL]_fmri_multiplication,2021.2.3,59.96818088287982
block7.xlsx,150.5,7.5,2,3 x 7,21,11,7 x 3 = 21,small-sized_high-interference,small-sized,high-interference,13,CorrectRESP,a,0,2,2,2,0,10,10,10,,,,,,,,,,,,,,,747.3220977560013,None,747.8221187,None,749.8216304230009,None,750.572351,None,750.8224984000008,None,750.8224984000008,None,a,0,0.54745358,750.8224984000008,None,751.3885563399999,None,751.3885563399999,None,d,0.157405796,751.3885563399999,None,751.5720318439999,None,,,,,sub-03,05/02/2001,1: Male,15/07/2023,004,1: right,2023_Jul_15_1138,[FINAL]_fmri_multiplication,2021.2.3,59.96818088287982
block7.xlsx,160,7.5,2.7,6 x 7,48,23,7 x 6 = 48,large-sized_high-interference,large-sized,high-interference,22,IncorrectRESP,d,0,2,2,2,0,11,11,11,,,,,,,,,,,,,,,753.5717931030013,None,754.0722062960012,None,756.0721098829999,None,756.8221109200003,None,757.0722289580008,None,757.0722289580008,None,d,0,0.649656119,757.0722289580008,None,757.7553327750011,None,757.7553327750011,None,d,0.11856294000062917,757.7553327750011,None,757.9044966600013,None,,,,,sub-03,05/02/2001,1: Male,15/07/2023,004,1: right,2023_Jul_15_1138,[FINAL]_fmri_multiplication,2021.2.3,59.96818088287982
block7.xlsx,170.2,7.5,7,5 x 7,35,17,7 x 5 = 35,large-sized_low-interference,large-sized,low-interference,7,CorrectRESP,a,0,2,2,2,0,12,12,12,,,,,,,,,,,,,,,760.6047373000001,None,761.1048292880005,None,763.1054933249998,None,763.8551590389998,None,764.1049934070015,None,764.1049934070015,None,a,0,0.5289129600005253,764.1049934070015,None,764.6547533070006,None,764.6547533070006,None,d,0.1951565000017581,764.6547533070006,None,764.8713743290009,None,,,,,sub-03,05/02/2001,1: Male,15/07/2023,004,1: right,2023_Jul_15_1138,[FINAL]_fmri_multiplication,2021.2.3,59.96818088287982
block7.xlsx,184.7,7.5,3,3 x 9,27,19,9 x 3 = 27,large-sized_high-interference,large-sized,high-interference,9,CorrectRESP,a,0,2,2,2,0,13,13,13,,,,,,,,,,,,,,,771.8718622060005,None,772.3716433580012,None,774.3718508,None,775.1216582180004,None,775.3706133680007,None,775.3706133680007,None,a,0,0.6952636020014324,775.3706133680007,None,776.088035,None,776.088035,None,d,0.17787653100094758,776.088035,None,776.2880410859998,None,,,,,sub-03,05/02/2001,1: Male,15/07/2023,004,1: right,2023_Jul_15_1138,[FINAL]_fmri_multiplication,2021.2.3,59.96818088287982
block7.xlsx,195.2,7.5,7.1,4 x 3,15,9,3 x 4 = 15,small-sized_high-interference,small-sized,high-interference,10,IncorrectRESP,d,0,2,2,2,0,14,14,14,,,,,,,,,,,,,,,779.2884971500007,None,779.7885107630009,None,781.7887661910008,None,782.5387031270002,None,782.7898818630001,None,782.7898818630001,None,d,0,0.6840657209995697,782.7898818630001,None,783.4994500280009,None,783.4994500280009,None,d,0.086468058,783.4994500280009,None,783.6079146200009,None,,,,,sub-03,05/02/2001,1: Male,15/07/2023,004,1: right,2023_Jul_15_1138,[FINAL]_fmri_multiplication,2021.2.3,59.96818088287982
block7.xlsx,209.8,7.5,3.9,2 x 8,18,5,8 x 2 = 18,small-sized_low-interference,small-sized,low-interference,7,IncorrectRESP,d,0,2,2,2,0,15,15,15,,,,,,,,,,,,,,,790.7222718800003,None,791.2205837380006,None,793.2219782480006,None,793.9719713930008,None,794.2207649310003,None,794.2207649310003,None,d,0,1.0051920660007454,794.2207649310003,None,795.2551008,None,795.2551008,None,d,0.3948187219993997,795.2551008,None,795.6714079180001,None,,,,,sub-03,05/02/2001,1: Male,15/07/2023,004,1: right,2023_Jul_15_1138,[FINAL]_fmri_multiplication,2021.2.3,59.96818088287982
block7.xlsx,221.2,7.5,13.2,8 x 5,40,21,5 x 8 = 40,large-sized_high-interference,large-sized,high-interference,9,CorrectRESP,a,0,2,2,2,0,16,16,16,,,,,,,,,,,,,,,799.5712882,None,800.0704568590008,None,802.0719315690003,None,802.8213349590005,None,803.0719638830014,None,803.0719638830014,None,a,0,0.5779373120003584,803.0719638830014,None,803.6701810630002,None,803.6701810630002,None,d,0.18767083199963963,803.6701810630002,None,803.8880199430005,None,,,,,sub-03,05/02/2001,1: Male,15/07/2023,004,1: right,2023_Jul_15_1138,[FINAL]_fmri_multiplication,2021.2.3,59.96818088287982
block7.xlsx,241.9,7.5,8.7,3 x 7,24,11,7 x 3 = 24,small-sized_high-interference,small-sized,high-interference,13,IncorrectRESP,d,0,2,2,2,0,17,17,17,,,,,,,,,,,,,,,817.0887233520007,None,817.5890404900001,None,819.5884149140002,None,820.3389629339999,None,820.5877273590013,None,820.5877273590013,None,d,0,0.4782136529993295,820.5877273590013,None,821.0885159070003,None,821.0885159070003,None,d,0.14539111900012358,821.0885159070003,None,821.2550485,None,,,,,sub-03,05/02/2001,1: Male,15/07/2023,004,1: right,2023_Jul_15_1138,[FINAL]_fmri_multiplication,2021.2.3,59.96818088287982
block7.xlsx,258.1,7.5,8.1,6 x 6,30,13,6 x 6 = 30,large-sized_low-interference,large-sized,low-interference,4,IncorrectRESP,d,0,2,2,2,0,18,18,18,,,,,,,,,,,,,,,829.9553006590013,None,830.4540961849998,None,832.4554058430003,None,833.2052128680007,None,833.4551038560003,None,833.4551038560003,None,d,0,0.898844323,833.4551038560003,None,834.3701133760005,None,834.3701133760005,None,d,0.15981901200029824,834.3701133760005,None,834.5544399640003,None,,,,,sub-03,05/02/2001,1: Male,15/07/2023,004,1: right,2023_Jul_15_1138,[FINAL]_fmri_multiplication,2021.2.3,59.96818088287982
block7.xlsx,273.7,7.5,8.2,8 x 5,45,21,5 x 8 = 45,large-sized_high-interference,large-sized,high-interference,9,IncorrectRESP,d,0,2,2,2,0,19,19,19,,,,,,,,,,,,,,,842.6540234750009,None,843.1545183160015,None,845.1547547290011,None,845.9051961420009,None,846.1564547950002,None,846.1564547950002,None,d,0,0.6854317329998594,846.1564547950002,None,846.8714407770003,None,846.8714407770003,None,d,0.14654482299920346,846.8714407770003,None,847.0383703070002,None,,,,,sub-03,05/02/2001,1: Male,15/07/2023,004,1: right,2023_Jul_15_1138,[FINAL]_fmri_multiplication,2021.2.3,59.96818088287982
block7.xlsx,289.4,7.5,5.5,4 x 3,12,9,3 x 4 = 12,small-sized_high-interference,small-sized,high-interference,10,CorrectRESP,a,0,2,2,2,0,20,20,20,,,,,,,,,,,,,,,855.2390298,None,855.7389894919997,None,857.7389437580005,None,858.4889110500008,None,858.7379144300012,None,858.7379144300012,None,a,0,0.6000833479993162,858.7379144300012,None,859.3539574040005,None,859.3539574040005,None,d,0.22398385199994664,859.3539574040005,None,859.6049803980004,None,,,,,sub-03,05/02/2001,1: Male,15/07/2023,004,1: right,2023_Jul_15_1138,[FINAL]_fmri_multiplication,2021.2.3,59.96818088287982
block7.xlsx,302.4,7.5,4.8,3 x 9,24,19,9 x 3 = 24,large-sized_high-interference,large-sized,high-interference,9,IncorrectRESP,d,0,2,2,2,0,21,21,21,,,,,,,,,,,,,,,865.1051407089999,None,865.6046299670015,None,867.6053997,None,868.3553031190004,None,868.6046034950014,None,868.6046034950014,None,d,0,0.6372829160009132,868.6046034950014,None,869.2716732429999,None,869.2716732429999,None,d,0.098342898,869.2716732429999,None,869.3880099750004,None,,,,,sub-03,05/02/2001,1: Male,15/07/2023,004,1: right,2023_Jul_15_1138,[FINAL]_fmri_multiplication,2021.2.3,59.96818088287982
block7.xlsx,314.7,7.5,2.5,5 x 9,45,15,9 x 5 = 45,large-sized_low-interference,large-sized,low-interference,6,CorrectRESP,a,0,2,2,2,0,22,22,22,,,,,,,,,,,,,,,874.1880357,None,874.6882497719998,None,876.6884218240011,None,877.4385087740011,None,877.6872090819998,None,877.6872090819998,None,a,0,0.562658006,877.6872090819998,None,878.2713678560012,None,878.2713678560012,None,d,0.21854484399955254,878.2713678560012,None,878.5217769,None,,,,,sub-03,05/02/2001,1: Male,15/07/2023,004,1: right,2023_Jul_15_1138,[FINAL]_fmri_multiplication,2021.2.3,59.96818088287982
block7.xlsx,324.7,7.5,2.8,6 x 7,42,23,7 x 6 = 42,large-sized_high-interference,large-sized,high-interference,22,CorrectRESP,a,0,2,2,2,0,23,23,23,,,,,,,,,,,,,,,881.0213586340014,None,881.5220304579998,None,883.5216483540007,None,884.2713411,None,884.5217763609999,None,884.5217763609999,None,a,0,0.5761324149989377,884.5217763609999,None,885.1211167,None,885.1211167,None,d,0.19276162899950577,885.1211167,None,885.3382071960004,None,,,,,sub-03,05/02/2001,1: Male,15/07/2023,004,1: right,2023_Jul_15_1138,[FINAL]_fmri_multiplication,2021.2.3,59.96818088287982
block7.xlsx,,,,,,,,,,,,,,0,2,2,2,,,,,0,0,0,0,,,,,,,,,,,,,,,,,,,,,,,,,,,,,,,,,,,,,,888.1396363580006,None,888.1396363580006,None,sub-03,05/02/2001,1: Male,15/07/2023,004,1: right,2023_Jul_15_1138,[FINAL]_fmri_multiplication,2021.2.3,59.96818088287982
block7.xlsx,,,,,,,,,,,,,,0,2,2,2,,,,,1,0,1,0,,,,,,,,,,,,,,,,,,,,,,,,,,,,,,,,,,,,,,889.1393555530012,889.1393555530012,889.1393555530012,889.1393555530012,sub-03,05/02/2001,1: Male,15/07/2023,004,1: right,2023_Jul_15_1138,[FINAL]_fmri_multiplication,2021.2.3,59.96818088287982
block7.xlsx,,,,,,,,,,,,,,0,2,2,2,,,,,2,0,2,0,,,,,,,,,,,,,,,,,,,,,,,,,,,,,,,,,,,,,,890.1398766170005,890.1398766170005,890.1398766170005,890.1398766170005,sub-03,05/02/2001,1: Male,15/07/2023,004,1: right,2023_Jul_15_1138,[FINAL]_fmri_multiplication,2021.2.3,59.96818088287982
block7.xlsx,,,,,,,,,,,,,,0,2,2,2,,,,,3,0,3,0,,,,,,,,,,,,,,,,,,,,,,,,,,,,,,,,,,,,,,891.1551645010004,None,891.1551645010004,None,sub-03,05/02/2001,1: Male,15/07/2023,004,1: right,2023_Jul_15_1138,[FINAL]_fmri_multiplication,2021.2.3,59.96818088287982
block7.xlsx,,,,,,,,,,,,,,0,2,2,2,,,,,4,0,4,0,,,,,,,,,,,,,,,,,,,,,,,,,,,,,,,,,,,,,,892.1559721970007,None,892.1559721970007,None,sub-03,05/02/2001,1: Male,15/07/2023,004,1: right,2023_Jul_15_1138,[FINAL]_fmri_multiplication,2021.2.3,59.96818088287982
block7.xlsx,,,,,,,,,,,,,,0,2,2,2,,,,,5,0,5,0,,,,,,,,,,,,,,,,,,,,,,,,,,,,,,,,,,,,,,893.1554851670007,None,893.1554851670007,None,sub-03,05/02/2001,1: Male,15/07/2023,004,1: right,2023_Jul_15_1138,[FINAL]_fmri_multiplication,2021.2.3,59.96818088287982
block7.xlsx,,,,,,,,,,,,,,0,2,2,2,,,,,6,0,6,0,,,,,,,,,,,,,,,,,,,,,,,,,,,,,,,,,,,,,,894.1565276960009,None,894.1565276960009,None,sub-03,05/02/2001,1: Male,15/07/2023,004,1: right,2023_Jul_15_1138,[FINAL]_fmri_multiplication,2021.2.3,59.96818088287982
block7.xlsx,,,,,,,,,,,,,,0,2,2,2,,,,,7,0,7,0,,,,,,,,,,,,,,,,,,,,,,,,,,,,,,,,,,,,,,895.1544766160005,None,895.1544766160005,None,sub-03,05/02/2001,1: Male,15/07/2023,004,1: right,2023_Jul_15_1138,[FINAL]_fmri_multiplication,2021.2.3,59.96818088287982
block7.xlsx,,,,,,,,,,,,,,0,2,2,2,,,,,8,0,8,0,,,,,,,,,,,,,,,,,,,,,,,,,,,,,,,,,,,,,,896.1564304340009,None,896.1564304340009,None,sub-03,05/02/2001,1: Male,15/07/2023,004,1: right,2023_Jul_15_1138,[FINAL]_fmri_multiplication,2021.2.3,59.96818088287982
block7.xlsx,,,,,,,,,,,,,,0,2,2,2,,,,,9,0,9,0,,,,,,,,,,,,,,,,,,,,,,,,,,,,,,,,,,,,,,897.1565912570004,None,897.1565912570004,None,sub-03,05/02/2001,1: Male,15/07/2023,004,1: right,2023_Jul_15_1138,[FINAL]_fmri_multiplication,2021.2.3,59.96818088287982
block7.xlsx,,,,,,,,,,,,,,0,2,2,2,,,,,10,0,10,0,,,,,,,,,,,,,,,,,,,,,,,,,,,,,,,,,,,,,,898.1560301580012,None,898.1560301580012,None,sub-03,05/02/2001,1: Male,15/07/2023,004,1: right,2023_Jul_15_1138,[FINAL]_fmri_multiplication,2021.2.3,59.96818088287982
block7.xlsx,,,,,,,,,,,,,,0,2,2,2,,,,,11,0,11,0,,,,,,,,,,,,,,,,,,,,,,,,,,,,,,,,,,,,,,899.1551953930011,None,899.1551953930011,None,sub-03,05/02/2001,1: Male,15/07/2023,004,1: right,2023_Jul_15_1138,[FINAL]_fmri_multiplication,2021.2.3,59.96818088287982
block7.xlsx,,,,,,,,,,,,,,0,2,2,2,,,,,12,0,12,0,,,,,,,,,,,,,,,,,,,,,,,,,,,,,,,,,,,,,,900.1554128420012,None,900.1554128420012,None,sub-03,05/02/2001,1: Male,15/07/2023,004,1: right,2023_Jul_15_1138,[FINAL]_fmri_multiplication,2021.2.3,59.96818088287982
block7.xlsx,,,,,,,,,,,,,,0,2,2,2,,,,,13,0,13,0,,,,,,,,,,,,,,,,,,,,,,,,,,,,,,,,,,,,,,901.1570550670003,None,901.1570550670003,None,sub-03,05/02/2001,1: Male,15/07/2023,004,1: right,2023_Jul_15_1138,[FINAL]_fmri_multiplication,2021.2.3,59.96818088287982
block7.xlsx,,,,,,,,,,,,,,0,2,2,2,,,,,14,0,14,0,,,,,,,,,,,,,,,,,,,,,,,,,,,,,,,,,,,,,,902.1556402599999,None,902.1556402599999,None,sub-03,05/02/2001,1: Male,15/07/2023,004,1: right,2023_Jul_15_1138,[FINAL]_fmri_multiplication,2021.2.3,59.96818088287982
block7.xlsx,,,,,,,,,,,,,,0,2,2,2,,,,,15,0,15,0,,,,,,,,,,,,,,,,,,,,,,,,,,,,,,,,,,,,,,903.1533408,None,903.1533408,None,sub-03,05/02/2001,1: Male,15/07/2023,004,1: right,2023_Jul_15_1138,[FINAL]_fmri_multiplication,2021.2.3,59.96818088287982
block7.xlsx,,,,,,,,,,,,,,0,2,2,2,,,,,16,0,16,0,,,,,,,,,,,,,,,,,,,,,,,,,,,,,,,,,,,,,,904.1557743940011,None,904.1557743940011,None,sub-03,05/02/2001,1: Male,15/07/2023,004,1: right,2023_Jul_15_1138,[FINAL]_fmri_multiplication,2021.2.3,59.96818088287982
block7.xlsx,,,,,,,,,,,,,,0,2,2,2,,,,,17,0,17,0,,,,,,,,,,,,,,,,,,,,,,,,,,,,,,,,,,,,,,905.1556675290012,None,905.1556675290012,None,sub-03,05/02/2001,1: Male,15/07/2023,004,1: right,2023_Jul_15_1138,[FINAL]_fmri_multiplication,2021.2.3,59.96818088287982
block7.xlsx,,,,,,,,,,,,,,0,2,2,2,,,,,18,0,18,0,,,,,,,,,,,,,,,,,,,,,,,,,,,,,,,,,,,,,,906.1554192559997,None,906.1554192559997,None,sub-03,05/02/2001,1: Male,15/07/2023,004,1: right,2023_Jul_15_1138,[FINAL]_fmri_multiplication,2021.2.3,59.96818088287982
block7.xlsx,,,,,,,,,,,,,,0,2,2,2,,,,,19,0,19,0,,,,,,,,,,,,,,,,,,,,,,,,,,,,,,,,,,,,,,907.1560336990005,None,907.1560336990005,None,sub-03,05/02/2001,1: Male,15/07/2023,004,1: right,2023_Jul_15_1138,[FINAL]_fmri_multiplication,2021.2.3,59.96818088287982
block7.xlsx,,,,,,,,,,,,,,0,2,2,2,,,,,20,0,20,0,,,,,,,,,,,,,,,,,,,,,,,,,,,,,,,,,,,,,,908.1552513470015,None,908.1552513470015,None,sub-03,05/02/2001,1: Male,15/07/2023,004,1: right,2023_Jul_15_1138,[FINAL]_fmri_multiplication,2021.2.3,59.96818088287982
block7.xlsx,,,,,,,,,,,,,,0,2,2,2,,,,,21,0,21,0,,,,,,,,,,,,,,,,,,,,,,,,,,,,,,,,,,,,,,909.1551360130015,None,909.1551360130015,None,sub-03,05/02/2001,1: Male,15/07/2023,004,1: right,2023_Jul_15_1138,[FINAL]_fmri_multiplication,2021.2.3,59.96818088287982
block7.xlsx,,,,,,,,,,,,,,0,2,2,2,,,,,22,0,22,0,,,,,,,,,,,,,,,,,,,,,,,,,,,,,,,,,,,,,,910.1540071190011,None,910.1540071190011,None,sub-03,05/02/2001,1: Male,15/07/2023,004,1: right,2023_Jul_15_1138,[FINAL]_fmri_multiplication,2021.2.3,59.96818088287982
block7.xlsx,,,,,,,,,,,,,,0,2,2,2,,,,,23,0,23,0,,,,,,,,,,,,,,,,,,,,,,,,,,,,,,,,,,,,,,911.1559691230013,None,911.1559691230013,None,sub-03,05/02/2001,1: Male,15/07/2023,004,1: right,2023_Jul_15_1138,[FINAL]_fmri_multiplication,2021.2.3,59.96818088287982
block7.xlsx,,,,,,,,,,,,,,0,2,2,2,,,,,24,0,24,0,,,,,,,,,,,,,,,,,,,,,,,,,,,,,,,,,,,,,,912.1538336700014,None,912.1538336700014,None,sub-03,05/02/2001,1: Male,15/07/2023,004,1: right,2023_Jul_15_1138,[FINAL]_fmri_multiplication,2021.2.3,59.96818088287982
block7.xlsx,,,,,,,,,,,,,,0,2,2,2,,,,,25,0,25,0,,,,,,,,,,,,,,,,,,,,,,,,,,,,,,,,,,,,,,913.1547999880004,None,913.1547999880004,None,sub-03,05/02/2001,1: Male,15/07/2023,004,1: right,2023_Jul_15_1138,[FINAL]_fmri_multiplication,2021.2.3,59.96818088287982
block7.xlsx,,,,,,,,,,,,,,0,2,2,2,,,,,26,0,26,0,,,,,,,,,,,,,,,,,,,,,,,,,,,,,,,,,,,,,,914.1549341910013,None,914.1549341910013,None,sub-03,05/02/2001,1: Male,15/07/2023,004,1: right,2023_Jul_15_1138,[FINAL]_fmri_multiplication,2021.2.3,59.96818088287982
block7.xlsx,,,,,,,,,,,,,,0,2,2,2,,,,,27,0,27,0,,,,,,,,,,,,,,,,,,,,,,,,,,,,,,,,,,,,,,915.1538194730001,None,915.1538194730001,None,sub-03,05/02/2001,1: Male,15/07/2023,004,1: right,2023_Jul_15_1138,[FINAL]_fmri_multiplication,2021.2.3,59.96818088287982
block7.xlsx,,,,,,,,,,,,,,0,2,2,2,,,,,28,0,28,0,,,,,,,,,,,,,,,,,,,,,,,,,,,,,,,,,,,,,,916.1562414830005,None,916.1562414830005,None,sub-03,05/02/2001,1: Male,15/07/2023,004,1: right,2023_Jul_15_1138,[FINAL]_fmri_multiplication,2021.2.3,59.96818088287982
block7.xlsx,,,,,,,,,,,,,,0,2,2,2,,,,,29,0,29,0,,,,,,,,,,,,,,,,,,,,,,,,,,,,,,,,,,,,,,917.1557853680006,None,917.1557853680006,None,sub-03,05/02/2001,1: Male,15/07/2023,004,1: right,2023_Jul_15_1138,[FINAL]_fmri_multiplication,2021.2.3,59.96818088287982
block7.xlsx,,,,,,,,,,,,,,0,2,2,2,,,,,,,,,,,,,,,,,,,,,,,,,,,,,,,,,,,,,,,,,,,,,,,,,,sub-03,05/02/2001,1: Male,15/07/2023,004,1: right,2023_Jul_15_1138,[FINAL]_fmri_multiplication,2021.2.3,59.96818088287982
block8.xlsx,10,7.5,4.2,9 x 9,81,16,9 x 9 = 81,large-sized_low-interference,large-sized,low-interference,6,CorrectRESP,a,0,3,3,3,0,0,0,0,,,,,,,,,,,,,918.1576995490013,None,928.1799619470003,None,928.6553656370015,None,930.6555886690003,None,931.4053138170002,None,931.6552221190013,None,931.6552221190013,None,a,0,0.6988169610012847,931.6552221190013,None,932.3717525290012,None,932.3717525290012,None,d,0.1982577679991664,932.3717525290012,None,932.5881616200004,None,,,,,sub-03,05/02/2001,1: Male,15/07/2023,004,1: right,2023_Jul_15_1138,[FINAL]_fmri_multiplication,2021.2.3,59.96818088287982
block8.xlsx,21.7,7.5,5.5,5 x 4,20,8,4 x 5 = 20,small-sized_high-interference,small-sized,high-interference,8,CorrectRESP,a,0,3,3,3,0,1,1,1,,,,,,,,,,,,,,,936.7882010370013,None,937.2881664,None,939.3213736020007,None,940.0551311159998,None,940.3050708360006,None,940.3050708360006,None,a,0,0.6168122299986862,940.3050708360006,None,940.9373656,None,940.9373656,None,d,0.552463133,940.9373656,None,941.5215235230007,None,,,,,sub-03,05/02/2001,1: Male,15/07/2023,004,1: right,2023_Jul_15_1138,[FINAL]_fmri_multiplication,2021.2.3,59.96818088287982
block8.xlsx,34.7,7.5,13.5,9 x 4,32,20,4 x 9 = 32,large-sized_high-interference,large-sized,high-interference,9,IncorrectRESP,d,0,3,3,3,0,2,2,2,,,,,,,,,,,,,,,947.0217344820012,None,947.5217763600012,None,949.5213950670004,None,950.2717874,None,950.5221234720011,None,950.5221234720011,None,d,0,0.7757490600015444,950.5221234720011,None,951.3212994200003,None,951.3212994200003,None,d,0.20060923699929845,951.3212994200003,None,951.5547004190012,None,,,,,sub-03,05/02/2001,1: Male,15/07/2023,004,1: right,2023_Jul_15_1138,[FINAL]_fmri_multiplication,2021.2.3,59.96818088287982
block8.xlsx,55.7,7.5,3.1,4 x 6,24,10,6 x 4 = 24,small-sized_high-interference,small-sized,high-interference,12,CorrectRESP,a,0,3,3,3,0,3,3,3,,,,,,,,,,,,,,,965.0555809440011,None,965.5554707380015,None,967.5554103780014,None,968.3053265110011,None,968.5552713190009,None,968.5552713190009,None,a,0,0.6067270900002768,968.5552713190009,None,969.1882111590003,None,969.1882111590003,None,d,0.22970740500022657,969.1882111590003,None,969.4380609300006,None,,,,,sub-03,05/02/2001,1: Male,15/07/2023,004,1: right,2023_Jul_15_1138,[FINAL]_fmri_multiplication,2021.2.3,59.96818088287982
block8.xlsx,66.3,7.5,7.7,2 x 6,10,6,6 x 2 = 10,small-sized_low-interference,small-sized,low-interference,3,IncorrectRESP,d,0,3,3,3,0,4,4,4,,,,,,,,,,,,,,,972.5385326110008,None,973.0385590500009,None,975.0385545850004,None,975.7883061030007,None,976.0539663939999,None,976.0539663939999,None,d,0,0.6279872389986849,976.0539663939999,None,976.7046896669999,None,976.7046896669999,None,d,0.15320273600082146,976.7046896669999,None,976.8867608270011,None,,,,,sub-03,05/02/2001,1: Male,15/07/2023,004,1: right,2023_Jul_15_1138,[FINAL]_fmri_multiplication,2021.2.3,59.96818088287982
block8.xlsx,81.5,7.5,6.9,7 x 7,49,18,7 x 7 = 49,large-sized_low-interference,large-sized,low-interference,7,CorrectRESP,a,0,3,3,3,0,5,5,5,,,,,,,,,,,,,,,984.5882018020002,None,985.0882555,None,987.0885767,None,987.8384524240009,None,988.0887468380006,None,988.0887468380006,None,a,0,0.49724829899969336,988.0887468380006,None,988.6047109160008,None,988.6047109160008,None,d,0.22920635599984962,988.6047109160008,None,988.8547788640008,None,,,,,sub-03,05/02/2001,1: Male,15/07/2023,004,1: right,2023_Jul_15_1138,[FINAL]_fmri_multiplication,2021.2.3,59.96818088287982
block8.xlsx,95.9,7.5,12.3,2 x 6,12,6,6 x 2 = 12,small-sized_low-interference,small-sized,low-interference,3,CorrectRESP,a,0,3,3,3,0,6,6,6,,,,,,,,,,,,,,,995.7552348030003,None,996.2556452910012,None,998.2556631210009,None,999.0055509210015,None,999.2536997850002,None,999.2536997850002,None,a,0,0.4761978429996816,999.2536997850002,None,999.7549249640015,None,999.7549249640015,None,d,0.18314215799910016,999.7549249640015,None,999.9555952270002,None,,,,,sub-03,05/02/2001,1: Male,15/07/2023,004,1: right,2023_Jul_15_1138,[FINAL]_fmri_multiplication,2021.2.3,59.96818088287982
block8.xlsx,115.7,7.5,2.7,7 x 8,63,22,8 x 7 = 63,large-sized_high-interference,large-sized,high-interference,9,IncorrectRESP,d,0,3,3,3,0,7,7,7,,,,,,,,,,,,,,,1012.2547982120013,None,1012.753807,None,1014.7552133139998,None,1015.5053017959999,None,1015.755173,None,1015.755173,None,d,0,0.694734184,1015.755173,None,1016.4713669459998,None,1016.4713669459998,None,d,0.20251757900041412,1016.4713669459998,None,1016.704783,None,,,,,sub-03,05/02/2001,1: Male,15/07/2023,004,1: right,2023_Jul_15_1138,[FINAL]_fmri_multiplication,2021.2.3,59.96818088287982
block8.xlsx,125.9,7.5,7.8,9 x 2,16,2,2 x 9 = 16,small-sized_low-interference,small-sized,low-interference,7,IncorrectRESP,d,0,3,3,3,0,8,8,8,,,,,,,,,,,,,,,1019.404692,None,1019.9049678709998,None,1021.9051201180009,None,1022.6551937080003,None,1022.9052375130013,None,1022.9052375130013,None,d,0,1.8086490250007046,1022.9052375130013,None,1024.7380545750002,None,1024.7380545750002,None,a,0.8399098740010231,1024.7380545750002,None,1025.6051119479998,None,,,,,sub-03,05/02/2001,1: Male,15/07/2023,004,1: right,2023_Jul_15_1138,[FINAL]_fmri_multiplication,2021.2.3,59.96818088287982
block8.xlsx,141.2,7.5,2.9,8 x 3,24,12,3 x 8 = 24,small-sized_high-interference,small-sized,high-interference,13,CorrectRESP,a,0,3,3,3,0,9,9,9,,,,,,,,,,,,,,,1033.4018802120008,None,1033.9181014220012,None,1035.922213,None,1036.6722921790006,None,1036.9227971220007,None,1036.9227971220007,None,a,0,0.551086393,1036.9227971220007,None,1037.5055948790014,None,1037.5055948790014,None,d,0.17632296000010683,1037.5055948790014,None,1037.7047975080004,None,,,,,sub-03,05/02/2001,1: Male,15/07/2023,004,1: right,2023_Jul_15_1138,[FINAL]_fmri_multiplication,2021.2.3,59.96818088287982
block8.xlsx,151.6,7.5,2,4 x 8,32,24,8 x 4 = 32,large-sized_high-interference,large-sized,high-interference,25,CorrectRESP,a,0,3,3,3,0,10,10,10,,,,,,,,,,,,,,,1040.605074,None,1041.104771,None,1043.1052090990015,None,1043.8552904460012,None,1044.1049753660009,None,1044.1049753660009,None,a,0,0.552852527,1044.1049753660009,None,1044.6881250730003,None,1044.6881250730003,None,d,0.20178271499935363,1044.6881250730003,None,1044.9215648730005,None,,,,,sub-03,05/02/2001,1: Male,15/07/2023,004,1: right,2023_Jul_15_1138,[FINAL]_fmri_multiplication,2021.2.3,59.96818088287982
block8.xlsx,161.1,7.5,13.1,9 x 9,72,16,9 x 9 = 72,large-sized_low-interference,large-sized,low-interference,6,IncorrectRESP,d,0,3,3,3,0,11,11,11,,,,,,,,,,,,,,,1046.9218182980003,None,1047.421455138001,None,1049.4213678760007,None,1050.1716175170004,None,1050.421485,None,1050.421485,None,d,0,0.5564882440012298,1050.421485,None,1051.003498,None,1051.003498,None,d,0.19045384299897705,1051.003498,None,1051.2210768470013,None,,,,,sub-03,05/02/2001,1: Male,15/07/2023,004,1: right,2023_Jul_15_1138,[FINAL]_fmri_multiplication,2021.2.3,59.96818088287982
block8.xlsx,181.7,7.5,2.4,5 x 4,16,8,4 x 5 = 16,small-sized_high-interference,small-sized,high-interference,8,IncorrectRESP,d,0,3,3,3,0,12,12,12,,,,,,,,,,,,,,,1064.3195887820002,None,1064.8210997470014,None,1066.8218242889998,None,1067.5723079890013,None,1067.8221241840001,None,1067.8221241840001,None,d,0,0.6438639120005973,1067.8221241840001,None,1068.4885047690004,None,1068.4885047690004,None,d,0.14541385600023204,1068.4885047690004,None,1068.6543168140015,None,,,,,sub-03,05/02/2001,1: Male,15/07/2023,004,1: right,2023_Jul_15_1138,[FINAL]_fmri_multiplication,2021.2.3,59.96818088287982
block8.xlsx,191.6,7.5,5.7,7 x 7,56,18,7 x 7 = 56,large-sized_low-interference,large-sized,low-interference,7,IncorrectRESP,d,0,3,3,3,0,13,13,13,,,,,,,,,,,,,,,1071.0555568790005,None,1071.5536930960006,None,1073.5552146190003,None,1074.3058214690009,None,1074.55462,None,1074.55462,None,d,0,0.6073799810001219,1074.55462,None,1075.1880492199998,None,1075.1880492199998,None,d,0.15794778099916584,1075.1880492199998,None,1075.3720579770015,None,,,,,sub-03,05/02/2001,1: Male,15/07/2023,004,1: right,2023_Jul_15_1138,[FINAL]_fmri_multiplication,2021.2.3,59.96818088287982
block8.xlsx,204.8,7.5,2.2,9 x 2,18,2,2 x 9 = 18,small-sized_low-interference,small-sized,low-interference,7,CorrectRESP,a,0,3,3,3,0,14,14,14,,,,,,,,,,,,,,,1081.0718656770005,None,1081.5714733470013,None,1083.5718240570004,None,1084.3218020230015,None,1084.571502963001,None,1084.571502963001,None,a,0,0.8304550770008063,1084.571502963001,None,1085.4211817550004,None,1085.4211817550004,None,d,0.3248298180005804,1085.4211817550004,None,1085.771141266001,None,,,,,sub-03,05/02/2001,1: Male,15/07/2023,004,1: right,2023_Jul_15_1138,[FINAL]_fmri_multiplication,2021.2.3,59.96818088287982
block8.xlsx,214.5,7.5,5.2,8 x 3,21,12,3 x 8 = 21,small-sized_high-interference,small-sized,high-interference,13,IncorrectRESP,d,0,3,3,3,0,15,15,15,,,,,,,,,,,,,,,1087.9717965649997,None,1088.4714265290004,None,1090.471758519001,None,1091.221769,None,1091.4721358740007,None,1091.4721358740007,None,d,0,0.6577731970010063,1091.4721358740007,None,1092.1545589260004,None,1092.1545589260004,None,d,0.18332586599899514,1092.1545589260004,None,1092.3717888219999,None,,,,,sub-03,05/02/2001,1: Male,15/07/2023,004,1: right,2023_Jul_15_1138,[FINAL]_fmri_multiplication,2021.2.3,59.96818088287982
block8.xlsx,227.2,7.5,3.8,4 x 4,20,4,4 x 4 = 20,small-sized_low-interference,small-sized,low-interference,5,IncorrectRESP,d,0,3,3,3,0,16,16,16,,,,,,,,,,,,,,,1097.5719838210007,None,1098.0717538540011,None,1100.0691885610013,None,1100.8213490320013,None,1101.0722473660007,None,1101.0722473660007,None,d,0,0.5777164130013261,1101.0722473660007,None,1101.6718410480007,None,1101.6718410480007,None,d,0.16205186300066998,1101.6718410480007,None,1101.854613720001,None,,,,,sub-03,05/02/2001,1: Male,15/07/2023,004,1: right,2023_Jul_15_1138,[FINAL]_fmri_multiplication,2021.2.3,59.96818088287982
block8.xlsx,238.5,7.5,2,4 x 6,28,10,6 x 4 = 28,small-sized_high-interference,small-sized,high-interference,12,IncorrectRESP,d,0,3,3,3,0,17,17,17,,,,,,,,,,,,,,,1105.6556025570007,None,1106.153908567001,None,1108.1555094659998,None,1108.9054211870007,None,1109.1563428549998,None,1109.1563428549998,None,d,0,0.6935950360002607,1109.1563428549998,None,1109.8708956380015,None,1109.8708956380015,None,d,0.17108654100047715,1109.8708956380015,None,1110.0699434550006,None,,,,,sub-03,05/02/2001,1: Male,15/07/2023,004,1: right,2023_Jul_15_1138,[FINAL]_fmri_multiplication,2021.2.3,59.96818088287982
block8.xlsx,248,7.5,4,6 x 5,30,14,5 x 6 = 30,large-sized_low-interference,large-sized,low-interference,6,CorrectRESP,a,0,3,3,3,0,18,18,18,,,,,,,,,,,,,,,1112.071920542001,None,1112.5712906059998,None,1114.5717120500012,None,1115.3218519000002,None,1115.5703515470013,None,1115.5703515470013,None,a,0,0.7514652710015071,1115.5703515470013,None,1116.3385073160007,None,1116.3385073160007,None,d,0.2154701710005611,1116.3385073160007,None,1116.5713483660002,None,,,,,sub-03,05/02/2001,1: Male,15/07/2023,004,1: right,2023_Jul_15_1138,[FINAL]_fmri_multiplication,2021.2.3,59.96818088287982
block8.xlsx,259.5,7.5,11.3,7 x 8,56,22,8 x 7 = 56,large-sized_high-interference,large-sized,high-interference,9,CorrectRESP,a,0,3,3,3,0,19,19,19,,,,,,,,,,,,,,,1120.5716248810004,None,1121.0707961240005,None,1123.071814971001,None,1123.8218307590014,None,1124.072035,None,1124.072035,None,a,0,0.553916343,1124.072035,None,1124.6550638030003,None,1124.6550638030003,None,d,0.2428013419994386,1124.6550638030003,None,1124.921756,None,,,,,sub-03,05/02/2001,1: Male,15/07/2023,004,1: right,2023_Jul_15_1138,[FINAL]_fmri_multiplication,2021.2.3,59.96818088287982
block8.xlsx,278.3,7.5,10.9,6 x 5,36,14,5 x 6 = 36,large-sized_low-interference,large-sized,low-interference,6,IncorrectRESP,d,0,3,3,3,0,20,20,20,,,,,,,,,,,,,,,1136.2219047280014,None,1136.722795224001,None,1138.7222877650001,None,1139.472045,None,1139.7242900340007,None,1139.7242900340007,None,d,0,0.589589026,1139.7242900340007,None,1140.3383687800015,None,1140.3383687800015,None,d,0.1515463079995243,1140.3383687800015,None,1140.5221450120007,None,,,,,sub-03,05/02/2001,1: Male,15/07/2023,004,1: right,2023_Jul_15_1138,[FINAL]_fmri_multiplication,2021.2.3,59.96818088287982
block8.xlsx,296.7,7.5,3.5,9 x 4,36,20,4 x 9 = 36,large-sized_high-interference,large-sized,high-interference,9,CorrectRESP,a,0,3,3,3,0,21,21,21,,,,,,,,,,,,,,,1151.4218181329998,None,1151.9217791790015,None,1153.921837,None,1154.671440162001,None,1154.9208897440003,None,1154.9208897440003,None,a,0,0.633178421,1154.9208897440003,None,1155.5717740670007,None,1155.5717740670007,None,d,0.17423458600023878,1155.5717740670007,None,1155.7702559530007,None,,,,,sub-03,05/02/2001,1: Male,15/07/2023,004,1: right,2023_Jul_15_1138,[FINAL]_fmri_multiplication,2021.2.3,59.96818088287982
block8.xlsx,307.7,7.5,2.9,4 x 4,16,4,4 x 4 = 16,small-sized_low-interference,small-sized,low-interference,5,CorrectRESP,a,0,3,3,3,0,22,22,22,,,,,,,,,,,,,,,1159.2705697729998,None,1159.7717840080004,None,1161.7713646250013,None,1162.5218072780008,None,1162.772584186001,None,1162.772584186001,None,a,0,0.6453437930013024,1162.772584186001,None,1163.4379543550003,None,1163.4379543550003,None,d,0.20400039400010428,1163.4379543550003,None,1163.6718118320005,None,,,,,sub-03,05/02/2001,1: Male,15/07/2023,004,1: right,2023_Jul_15_1138,[FINAL]_fmri_multiplication,2021.2.3,59.96818088287982
block8.xlsx,318.1,7.5,9.4,4 x 8,28,24,8 x 4 = 28,large-sized_high-interference,large-sized,high-interference,25,IncorrectRESP,d,0,3,3,3,0,23,23,23,,,,,,,,,,,,,,,1166.571635653001,None,1167.072466859001,None,1169.0719905670012,None,1169.825344,None,1170.0842580090011,None,1170.0842580090011,None,d,0,0.573667958,1170.0842580090011,None,1170.6757028060001,None,1170.6757028060001,None,d,0.13429791800081148,1170.6757028060001,None,1170.8386398849998,None,,,,,sub-03,05/02/2001,1: Male,15/07/2023,004,1: right,2023_Jul_15_1138,[FINAL]_fmri_multiplication,2021.2.3,59.96818088287982
block8.xlsx,,,,,,,,,,,,,,0,3,3,3,,,,,0,0,0,0,,,,,,,,,,,,,,,,,,,,,,,,,,,,,,,,,,,,,,1180.239698278001,None,1180.239698278001,None,sub-03,05/02/2001,1: Male,15/07/2023,004,1: right,2023_Jul_15_1138,[FINAL]_fmri_multiplication,2021.2.3,59.96818088287982
block8.xlsx,,,,,,,,,,,,,,0,3,3,3,,,,,1,0,1,0,,,,,,,,,,,,,,,,,,,,,,,,,,,,,,,,,,,,,,1181.2548,None,1181.2548,None,sub-03,05/02/2001,1: Male,15/07/2023,004,1: right,2023_Jul_15_1138,[FINAL]_fmri_multiplication,2021.2.3,59.96818088287982
block8.xlsx,,,,,,,,,,,,,,0,3,3,3,,,,,2,0,2,0,,,,,,,,,,,,,,,,,,,,,,,,,,,,,,,,,,,,,,1182.2548730960007,None,1182.2548730960007,None,sub-03,05/02/2001,1: Male,15/07/2023,004,1: right,2023_Jul_15_1138,[FINAL]_fmri_multiplication,2021.2.3,59.96818088287982
block8.xlsx,,,,,,,,,,,,,,0,3,3,3,,,,,3,0,3,0,,,,,,,,,,,,,,,,,,,,,,,,,,,,,,,,,,,,,,1183.2548855130008,None,1183.2548855130008,None,sub-03,05/02/2001,1: Male,15/07/2023,004,1: right,2023_Jul_15_1138,[FINAL]_fmri_multiplication,2021.2.3,59.96818088287982
block8.xlsx,,,,,,,,,,,,,,0,3,3,3,,,,,4,0,4,0,,,,,,,,,,,,,,,,,,,,,,,,,,,,,,,,,,,,,,1184.255763606001,None,1184.255763606001,None,sub-03,05/02/2001,1: Male,15/07/2023,004,1: right,2023_Jul_15_1138,[FINAL]_fmri_multiplication,2021.2.3,59.96818088287982
block8.xlsx,,,,,,,,,,,,,,0,3,3,3,,,,,5,0,5,0,,,,,,,,,,,,,,,,,,,,,,,,,,,,,,,,,,,,,,1185.2559277260007,None,1185.2559277260007,None,sub-03,05/02/2001,1: Male,15/07/2023,004,1: right,2023_Jul_15_1138,[FINAL]_fmri_multiplication,2021.2.3,59.96818088287982
block8.xlsx,,,,,,,,,,,,,,0,3,3,3,,,,,6,0,6,0,,,,,,,,,,,,,,,,,,,,,,,,,,,,,,,,,,,,,,1186.2561382600015,None,1186.2561382600015,None,sub-03,05/02/2001,1: Male,15/07/2023,004,1: right,2023_Jul_15_1138,[FINAL]_fmri_multiplication,2021.2.3,59.96818088287982
block8.xlsx,,,,,,,,,,,,,,0,3,3,3,,,,,7,0,7,0,,,,,,,,,,,,,,,,,,,,,,,,,,,,,,,,,,,,,,1187.2557624600013,None,1187.2557624600013,None,sub-03,05/02/2001,1: Male,15/07/2023,004,1: right,2023_Jul_15_1138,[FINAL]_fmri_multiplication,2021.2.3,59.96818088287982
block8.xlsx,,,,,,,,,,,,,,0,3,3,3,,,,,8,0,8,0,,,,,,,,,,,,,,,,,,,,,,,,,,,,,,,,,,,,,,1188.2553070630001,None,1188.2553070630001,None,sub-03,05/02/2001,1: Male,15/07/2023,004,1: right,2023_Jul_15_1138,[FINAL]_fmri_multiplication,2021.2.3,59.96818088287982
block8.xlsx,,,,,,,,,,,,,,0,3,3,3,,,,,9,0,9,0,,,,,,,,,,,,,,,,,,,,,,,,,,,,,,,,,,,,,,1189.2558570270012,None,1189.2558570270012,None,sub-03,05/02/2001,1: Male,15/07/2023,004,1: right,2023_Jul_15_1138,[FINAL]_fmri_multiplication,2021.2.3,59.96818088287982
block8.xlsx,,,,,,,,,,,,,,0,3,3,3,,,,,10,0,10,0,,,,,,,,,,,,,,,,,,,,,,,,,,,,,,,,,,,,,,1190.2541972830004,None,1190.2541972830004,None,sub-03,05/02/2001,1: Male,15/07/2023,004,1: right,2023_Jul_15_1138,[FINAL]_fmri_multiplication,2021.2.3,59.96818088287982
block8.xlsx,,,,,,,,,,,,,,0,3,3,3,,,,,11,0,11,0,,,,,,,,,,,,,,,,,,,,,,,,,,,,,,,,,,,,,,1191.2560012949998,None,1191.2560012949998,None,sub-03,05/02/2001,1: Male,15/07/2023,004,1: right,2023_Jul_15_1138,[FINAL]_fmri_multiplication,2021.2.3,59.96818088287982
block8.xlsx,,,,,,,,,,,,,,0,3,3,3,,,,,12,0,12,0,,,,,,,,,,,,,,,,,,,,,,,,,,,,,,,,,,,,,,1192.2556587750005,None,1192.2556587750005,None,sub-03,05/02/2001,1: Male,15/07/2023,004,1: right,2023_Jul_15_1138,[FINAL]_fmri_multiplication,2021.2.3,59.96818088287982
block8.xlsx,,,,,,,,,,,,,,0,3,3,3,,,,,13,0,13,0,,,,,,,,,,,,,,,,,,,,,,,,,,,,,,,,,,,,,,1193.2542550529997,None,1193.2542550529997,None,sub-03,05/02/2001,1: Male,15/07/2023,004,1: right,2023_Jul_15_1138,[FINAL]_fmri_multiplication,2021.2.3,59.96818088287982
block8.xlsx,,,,,,,,,,,,,,0,3,3,3,,,,,14,0,14,0,,,,,,,,,,,,,,,,,,,,,,,,,,,,,,,,,,,,,,1194.2545255650002,None,1194.2545255650002,None,sub-03,05/02/2001,1: Male,15/07/2023,004,1: right,2023_Jul_15_1138,[FINAL]_fmri_multiplication,2021.2.3,59.96818088287982
block8.xlsx,,,,,,,,,,,,,,0,3,3,3,,,,,15,0,15,0,,,,,,,,,,,,,,,,,,,,,,,,,,,,,,,,,,,,,,1195.254538049001,None,1195.254538049001,None,sub-03,05/02/2001,1: Male,15/07/2023,004,1: right,2023_Jul_15_1138,[FINAL]_fmri_multiplication,2021.2.3,59.96818088287982
block8.xlsx,,,,,,,,,,,,,,0,3,3,3,,,,,16,0,16,0,,,,,,,,,,,,,,,,,,,,,,,,,,,,,,,,,,,,,,1196.2553429520012,None,1196.2553429520012,None,sub-03,05/02/2001,1: Male,15/07/2023,004,1: right,2023_Jul_15_1138,[FINAL]_fmri_multiplication,2021.2.3,59.96818088287982
block8.xlsx,,,,,,,,,,,,,,0,3,3,3,,,,,17,0,17,0,,,,,,,,,,,,,,,,,,,,,,,,,,,,,,,,,,,,,,1197.2546571069997,None,1197.2546571069997,None,sub-03,05/02/2001,1: Male,15/07/2023,004,1: right,2023_Jul_15_1138,[FINAL]_fmri_multiplication,2021.2.3,59.96818088287982
block8.xlsx,,,,,,,,,,,,,,0,3,3,3,,,,,18,0,18,0,,,,,,,,,,,,,,,,,,,,,,,,,,,,,,,,,,,,,,1198.255962,None,1198.255962,None,sub-03,05/02/2001,1: Male,15/07/2023,004,1: right,2023_Jul_15_1138,[FINAL]_fmri_multiplication,2021.2.3,59.96818088287982
block8.xlsx,,,,,,,,,,,,,,0,3,3,3,,,,,19,0,19,0,,,,,,,,,,,,,,,,,,,,,,,,,,,,,,,,,,,,,,1199.2557828059998,None,1199.2557828059998,None,sub-03,05/02/2001,1: Male,15/07/2023,004,1: right,2023_Jul_15_1138,[FINAL]_fmri_multiplication,2021.2.3,59.96818088287982
block8.xlsx,,,,,,,,,,,,,,0,3,3,3,,,,,20,0,20,0,,,,,,,,,,,,,,,,,,,,,,,,,,,,,,,,,,,,,,1200.2546432489999,None,1200.2546432489999,None,sub-03,05/02/2001,1: Male,15/07/2023,004,1: right,2023_Jul_15_1138,[FINAL]_fmri_multiplication,2021.2.3,59.96818088287982
block8.xlsx,,,,,,,,,,,,,,0,3,3,3,,,,,21,0,21,0,,,,,,,,,,,,,,,,,,,,,,,,,,,,,,,,,,,,,,1201.2577318080002,None,1201.2577318080002,None,sub-03,05/02/2001,1: Male,15/07/2023,004,1: right,2023_Jul_15_1138,[FINAL]_fmri_multiplication,2021.2.3,59.96818088287982
block8.xlsx,,,,,,,,,,,,,,0,3,3,3,,,,,22,0,22,0,,,,,,,,,,,,,,,,,,,,,,,,,,,,,,,,,,,,,,1202.2552766360004,None,1202.2552766360004,None,sub-03,05/02/2001,1: Male,15/07/2023,004,1: right,2023_Jul_15_1138,[FINAL]_fmri_multiplication,2021.2.3,59.96818088287982
block8.xlsx,,,,,,,,,,,,,,0,3,3,3,,,,,23,0,23,0,,,,,,,,,,,,,,,,,,,,,,,,,,,,,,,,,,,,,,1203.2575976320004,None,1203.2575976320004,None,sub-03,05/02/2001,1: Male,15/07/2023,004,1: right,2023_Jul_15_1138,[FINAL]_fmri_multiplication,2021.2.3,59.96818088287982
block8.xlsx,,,,,,,,,,,,,,0,3,3,3,,,,,24,0,24,0,,,,,,,,,,,,,,,,,,,,,,,,,,,,,,,,,,,,,,1204.2560757620013,None,1204.2560757620013,None,sub-03,05/02/2001,1: Male,15/07/2023,004,1: right,2023_Jul_15_1138,[FINAL]_fmri_multiplication,2021.2.3,59.96818088287982
block8.xlsx,,,,,,,,,,,,,,0,3,3,3,,,,,25,0,25,0,,,,,,,,,,,,,,,,,,,,,,,,,,,,,,,,,,,,,,1205.2467389860012,None,1205.2467389860012,None,sub-03,05/02/2001,1: Male,15/07/2023,004,1: right,2023_Jul_15_1138,[FINAL]_fmri_multiplication,2021.2.3,59.96818088287982
block8.xlsx,,,,,,,,,,,,,,0,3,3,3,,,,,26,0,26,0,,,,,,,,,,,,,,,,,,,,,,,,,,,,,,,,,,,,,,1206.2549018080008,None,1206.2549018080008,None,sub-03,05/02/2001,1: Male,15/07/2023,004,1: right,2023_Jul_15_1138,[FINAL]_fmri_multiplication,2021.2.3,59.96818088287982
block8.xlsx,,,,,,,,,,,,,,0,3,3,3,,,,,27,0,27,0,,,,,,,,,,,,,,,,,,,,,,,,,,,,,,,,,,,,,,1207.2563087830003,None,1207.2563087830003,None,sub-03,05/02/2001,1: Male,15/07/2023,004,1: right,2023_Jul_15_1138,[FINAL]_fmri_multiplication,2021.2.3,59.96818088287982
block8.xlsx,,,,,,,,,,,,,,0,3,3,3,,,,,28,0,28,0,,,,,,,,,,,,,,,,,,,,,,,,,,,,,,,,,,,,,,1208.2567481430015,None,1208.2567481430015,None,sub-03,05/02/2001,1: Male,15/07/2023,004,1: right,2023_Jul_15_1138,[FINAL]_fmri_multiplication,2021.2.3,59.96818088287982
block8.xlsx,,,,,,,,,,,,,,0,3,3,3,,,,,29,0,29,0,,,,,,,,,,,,,,,,,,,,,,,,,,,,,,,,,,,,,,1209.254618463001,None,1209.254618463001,None,sub-03,05/02/2001,1: Male,15/07/2023,004,1: right,2023_Jul_15_1138,[FINAL]_fmri_multiplication,2021.2.3,59.96818088287982
block8.xlsx,,,,,,,,,,,,,,0,3,3,3,,,,,,,,,,,,,,,,,,,,,,,,,,,,,,,,,,,,,,,,,,,,,,,,,,sub-03,05/02/2001,1: Male,15/07/2023,004,1: right,2023_Jul_15_1138,[FINAL]_fmri_multiplication,2021.2.3,59.96818088287982