blocks_file,start,dur,rest,mult_problemB,mult_options,stim_trial,mult_stim,type,ProblemSize,InterferenceLH,InterferenceLevel,mult_type,corrRESP,blocks_set.thisRepN,blocks_set.thisTrialN,blocks_set.thisN,blocks_set.thisIndex,TRIALS.thisRepN,TRIALS.thisTrialN,TRIALS.thisN,TRIALS.thisIndex,timer_loop.thisRepN,timer_loop.thisTrialN,timer_loop.thisN,timer_loop.thisIndex,WAIT_TEXT.started,WAIT_TEXT.stopped,scan_start_trigger.keys,scan_start_trigger.rt,scan_start_trigger.started,scan_start_trigger.stopped,MAIN_SCREEN.started,MAIN_SCREEN.stopped,Block_Text.started,Block_Text.stopped,asterisk500ms.started,asterisk500ms.stopped,mult_question_text.started,mult_question_text.stopped,equal_text.started,equal_text.stopped,blank250_text.started,blank250_text.stopped,Mult_OPTION.started,Mult_OPTION.stopped,Mult_YN.started,Mult_YN.stopped,Mult_Resp.keys,Mult_Resp.corr,Mult_Resp.rt,Mult_Resp.started,Mult_Resp.stopped,Strategy_Q.started,Strategy_Q.stopped,Strategy_Option.started,Strategy_Option.stopped,Strategy_RESP.keys,Strategy_RESP.rt,Strategy_RESP.started,Strategy_RESP.stopped,jitters.started,jitters.stopped,resting_text.started,resting_text.stopped,countdown_timer.started,countdown_timer.stopped,participant,Date of birth (DD/MM/YEAR),gender,Testing Date (DD/MM/YEAR),session,handedness,date,expName,psychopyVersion,frameRate
,,,,,,,,,,,,,,,,,,,,,,,,,,48.97529995199966,None,s,51.44689853300042,48.97529995199966,None,,,,,,,,,,,,,,,,,,,,,,,,,,,,,,,,,,,,sub-06,12/03/2002,2: Female,08/09/2023,001,1: right,2023_Sep_08_1721,[FINAL]_fmri_multiplication,2021.2.3,59.75384047
block1.xlsx,10,7.5,15.3,6 x 6,36,13,6 x 6 = 36,large-sized_low-interference,large-sized,low-interference,4,CorrectRESP,a,0,0,0,0,0,0,0,0,,,,,,,,,,,100.44587845899969,None,105.46896928000024,None,115.4685794269999,None,115.94938980499956,None,117.94647473500027,None,118.69647801199972,None,118.94946065899967,None,118.94946065899967,None,a,0,0.5866818979993695,118.94946065899967,None,119.56259991600018,None,119.56259991600018,None,d,0.7895549349996145,119.56259991600018,None,120.37975911400008,None,,,,,sub-06,12/03/2002,2: Female,08/09/2023,001,1: right,2023_Sep_08_1721,[FINAL]_fmri_multiplication,2021.2.3,59.75384047
block1.xlsx,32.8,7.5,2.5,2 x 9,18,2,2 x 9 = 18,small-sized_low-interference,small-sized,low-interference,7,CorrectRESP,a,0,0,0,0,0,1,1,1,,,,,,,,,,,,,,,135.67926101000012,None,136.18258689699996,None,138.19648503699955,None,138.9463271049999,None,139.2106387169997,None,139.2106387169997,None,a,0,0.6374169939999774,139.2106387169997,None,139.8795161529997,None,139.8795161529997,None,d,0.39251173000047856,139.8795161529997,None,140.29660591500033,None,,,,,sub-06,12/03/2002,2: Female,08/09/2023,001,1: right,2023_Sep_08_1721,[FINAL]_fmri_multiplication,2021.2.3,59.75384047
block1.xlsx,42.8,7.5,3.8,8 x 4,28,24,8 x 4 = 28,large-sized_high-interference,large-sized,high-interference,25,IncorrectRESP,d,0,0,0,0,0,2,2,2,,,,,,,,,,,,,,,142.79684028500014,None,143.2989642450002,None,145.31346033199952,None,146.06345004499963,None,146.3132459620001,None,146.3132459620001,None,d,0,0.7667894499991235,146.3132459620001,None,147.09681111200007,None,147.09681111200007,None,d,0.551249702,147.09681111200007,None,147.68004757200015,None,,,,,sub-06,12/03/2002,2: Female,08/09/2023,001,1: right,2023_Sep_08_1721,[FINAL]_fmri_multiplication,2021.2.3,59.75384047
block1.xlsx,54.1,7.5,5.5,7 x 2,14,1,7 x 2 = 14,small-sized_low-interference,small-sized,low-interference,4,CorrectRESP,a,0,0,0,0,0,3,3,3,,,,,,,,,,,,,,,151.47997424200003,None,151.98073398499946,None,153.9965705980003,None,154.74646750800002,None,154.9966141089999,None,154.9966141089999,None,a,0,0.5954486159998851,154.9966141089999,None,155.6125357330002,None,155.6125357330002,None,d,0.3235886440006652,155.6125357330002,None,155.96297553000022,None,,,,,sub-06,12/03/2002,2: Female,08/09/2023,001,1: right,2023_Sep_08_1721,[FINAL]_fmri_multiplication,2021.2.3,59.75384047
block1.xlsx,67.1,7.5,3,7 x 7,56,18,7 x 7 = 56,large-sized_low-interference,large-sized,low-interference,7,IncorrectRESP,d,0,0,0,0,0,4,4,4,,,,,,,,,,,,,,,161.46302074599953,None,161.96256651600015,None,163.96280217799995,None,164.7130308579999,None,164.96500756000023,None,164.96500756000023,None,d,0,0.7391396499997427,164.96500756000023,None,165.7290587560001,None,165.7290587560001,None,d,0.46300266000071133,165.7290587560001,None,166.21317010700022,None,,,,,sub-06,12/03/2002,2: Female,08/09/2023,001,1: right,2023_Sep_08_1721,[FINAL]_fmri_multiplication,2021.2.3,59.75384047
block1.xlsx,77.6,7.5,2.1,3 x 4,12,9,3 x 4 = 12,small-sized_high-interference,small-sized,high-interference,10,CorrectRESP,a,0,0,0,0,0,5,5,5,,,,,,,,,,,,,,,169.21309796199967,None,169.71283013500033,None,171.71312523100005,None,172.4626997559999,None,172.712952,None,172.712952,None,a,0,0.5351083860005019,172.712952,None,173.27929157400013,None,173.27929157400013,None,d,0.33674804300062533,173.27929157400013,None,173.6465144189997,None,,,,,sub-06,12/03/2002,2: Female,08/09/2023,001,1: right,2023_Sep_08_1721,[FINAL]_fmri_multiplication,2021.2.3,59.75384047
block1.xlsx,87.2,7.5,5,8 x 7,63,22,8 x 7 = 63,large-sized_high-interference,large-sized,high-interference,9,IncorrectRESP,d,0,0,0,0,0,6,6,6,,,,,,,,,,,,,,,175.7466269939996,None,176.24655668600008,None,178.2447521439999,None,178.9930266169995,None,179.23868184000003,None,179.23868184000003,None,d,0,0.7214333780002562,179.23868184000003,None,179.97971704100019,None,179.97971704100019,None,d,0.3484850360000564,179.97971704100019,None,180.34639499599962,None,,,,,sub-06,12/03/2002,2: Female,08/09/2023,001,1: right,2023_Sep_08_1721,[FINAL]_fmri_multiplication,2021.2.3,59.75384047
block1.xlsx,99.7,7.5,3,5 x 5,25,3,5 x 5 = 25,small-sized_low-interference,small-sized,low-interference,3,CorrectRESP,a,0,0,0,0,0,7,7,7,,,,,,,,,,,,,,,185.34672756799955,None,185.8463461649999,None,187.84661610500007,None,188.59649844700016,None,188.84628195200003,None,188.84628195200003,None,a,0,0.6337651789999654,188.84628195200003,None,189.5119626249998,None,189.5119626249998,None,d,0.3761767050000344,189.5119626249998,None,189.9130151219997,None,,,,,sub-06,12/03/2002,2: Female,08/09/2023,001,1: right,2023_Sep_08_1721,[FINAL]_fmri_multiplication,2021.2.3,59.75384047
block1.xlsx,110.2,7.5,6.5,6 x 4,28,10,6 x 4 = 28,small-sized_high-interference,small-sized,high-interference,12,IncorrectRESP,d,0,0,0,0,0,8,8,8,,,,,,,,,,,,,,,192.91282912499992,None,193.4129273030003,None,195.41318380200028,None,196.16326472699984,None,196.41341461199954,None,196.41341461199954,None,d,0,0.7147064259997933,196.41341461199954,None,197.14615085399964,None,197.14615085399964,None,d,0.2779904520002674,197.14615085399964,None,197.4460051599999,None,,,,,sub-06,12/03/2002,2: Female,08/09/2023,001,1: right,2023_Sep_08_1721,[FINAL]_fmri_multiplication,2021.2.3,59.75384047
block1.xlsx,124.2,7.5,5.7,5 x 8,40,21,5 x 8 = 40,large-sized_high-interference,large-sized,high-interference,9,CorrectRESP,a,0,0,0,0,0,9,9,9,,,,,,,,,,,,,,,203.94641647699973,None,204.44630139899982,None,206.44652149600006,None,207.19634141000006,None,207.44899930599968,None,207.44899930599968,None,a,0,0.5351094879997618,207.44899930599968,None,208.01269381099974,None,208.01269381099974,None,d,0.30748726000001625,208.01269381099974,None,208.3462005680003,None,,,,,sub-06,12/03/2002,2: Female,08/09/2023,001,1: right,2023_Sep_08_1721,[FINAL]_fmri_multiplication,2021.2.3,59.75384047
block1.xlsx,137.4,7.5,11.2,7 x 3,24,11,7 x 3 = 24,small-sized_high-interference,small-sized,high-interference,13,IncorrectRESP,d,0,0,0,0,0,10,10,10,,,,,,,,,,,,,,,214.04334912800005,None,214.53848215000016,None,216.5469425000001,None,217.29670674499994,None,217.54670625800009,None,217.54670625800009,None,d,0,0.637326421,217.54670625800009,None,218.21273004700015,None,218.21273004700015,None,d,0.28349003400035144,218.21273004700015,None,218.51331348999975,None,,,,,sub-06,12/03/2002,2: Female,08/09/2023,001,1: right,2023_Sep_08_1721,[FINAL]_fmri_multiplication,2021.2.3,59.75384047
block1.xlsx,156.1,7.5,6.9,5 x 6,30,14,5 x 6 = 30,large-sized_low-interference,large-sized,low-interference,6,CorrectRESP,a,0,0,0,0,0,11,11,11,,,,,,,,,,,,,,,229.71301039300033,None,230.2127934909995,None,232.21313855799963,None,232.96314216599967,None,233.21325647100002,None,233.21325647100002,None,a,0,0.5629228850002619,233.21325647100002,None,233.79589324100016,None,233.79589324100016,None,d,0.23616258299989568,233.79589324100016,None,234.0627040090003,None,,,,,sub-06,12/03/2002,2: Female,08/09/2023,001,1: right,2023_Sep_08_1721,[FINAL]_fmri_multiplication,2021.2.3,59.75384047
block1.xlsx,170.5,7.5,2.4,6 x 2,10,6,6 x 2 = 10,small-sized_low-interference,small-sized,low-interference,3,IncorrectRESP,d,0,0,0,0,0,12,12,12,,,,,,,,,,,,,,,240.96267998799976,None,241.46263658499993,None,243.46315221700024,None,244.21306089100017,None,244.46238664500015,None,244.46238664500015,None,d,0,0.6336920760004432,244.46238664500015,None,245.1132270749995,None,245.1132270749995,None,d,0.2548905409994404,245.1132270749995,None,245.39666612899964,None,,,,,sub-06,12/03/2002,2: Female,08/09/2023,001,1: right,2023_Sep_08_1721,[FINAL]_fmri_multiplication,2021.2.3,59.75384047
block1.xlsx,180.4,7.5,4.6,4 x 9,36,20,4 x 9 = 36,large-sized_high-interference,large-sized,high-interference,9,CorrectRESP,a,0,0,0,0,0,13,13,13,,,,,,,,,,,,,,,247.79638822800007,None,248.29381532299976,None,250.29654096299964,None,251.04684899699987,None,251.29688083899964,None,251.29688083899964,None,a,0,0.6072619079996002,251.29688083899964,None,251.92945532300018,None,251.92945532300018,None,d,0.23069500899964623,251.92945532300018,None,252.17974109399984,None,,,,,sub-06,12/03/2002,2: Female,08/09/2023,001,1: right,2023_Sep_08_1721,[FINAL]_fmri_multiplication,2021.2.3,59.75384047
block1.xlsx,192.5,7.5,9,7 x 5,40,17,7 x 5 = 40,large-sized_low-interference,large-sized,low-interference,7,IncorrectRESP,d,0,0,0,0,0,14,14,14,,,,,,,,,,,,,,,256.77954680699986,None,257.27968153799975,None,259.27974541099957,None,260.0302964679995,None,260.27944363999995,None,260.27944363999995,None,d,0,0.5686162179999883,260.27944363999995,None,260.8794482459998,None,260.8794482459998,None,d,0.1606495719997838,260.8794482459998,None,261.06271085200024,None,,,,,sub-06,12/03/2002,2: Female,08/09/2023,001,1: right,2023_Sep_08_1721,[FINAL]_fmri_multiplication,2021.2.3,59.75384047
block1.xlsx,209,7.5,5.8,6 x 3,18,7,6 x 3 = 18,small-sized_high-interference,small-sized,high-interference,8,CorrectRESP,a,0,0,0,0,0,15,15,15,,,,,,,,,,,,,,,270.0630096599998,None,270.5626091570002,None,272.5630124700001,None,273.3128258939996,None,273.56252286699964,None,273.56252286699964,None,a,0,0.5975917390005634,273.56252286699964,None,274.17923383499965,None,274.17923383499965,None,d,0.188969052,274.17923383499965,None,274.39593052500004,None,,,,,sub-06,12/03/2002,2: Female,08/09/2023,001,1: right,2023_Sep_08_1721,[FINAL]_fmri_multiplication,2021.2.3,59.75384047
block1.xlsx,222.3,7.5,2.9,7 x 6,48,23,7 x 6 = 48,large-sized_high-interference,large-sized,high-interference,22,IncorrectRESP,d,0,0,0,0,0,16,16,16,,,,,,,,,,,,,,,280.1965658,None,280.6961774720003,None,282.6968990260002,None,283.4494595,None,283.69919640399985,None,283.69919640399985,None,d,0,0.6129344139999375,283.69919640399985,None,284.32972035500006,None,284.32972035500006,None,d,0.19043075799982034,284.32972035500006,None,284.54669474599996,None,,,,,sub-06,12/03/2002,2: Female,08/09/2023,001,1: right,2023_Sep_08_1721,[FINAL]_fmri_multiplication,2021.2.3,59.75384047
block1.xlsx,232.7,7.5,6.9,9 x 5,45,15,9 x 5 = 45,large-sized_low-interference,large-sized,low-interference,6,CorrectRESP,a,0,0,0,0,0,17,17,17,,,,,,,,,,,,,,,287.44640792599967,None,287.946573,None,289.94688873499945,None,290.6969107,None,290.9469264950003,None,290.9469264950003,None,a,0,0.5412165859997913,290.9469264950003,None,291.5127062299998,None,291.5127062299998,None,d,0.1754457970000658,291.5127062299998,None,291.7132051970002,None,,,,,sub-06,12/03/2002,2: Female,08/09/2023,001,1: right,2023_Sep_08_1721,[FINAL]_fmri_multiplication,2021.2.3,59.75384047
block1.xlsx,247.1,7.5,2.5,4 x 4,20,4,4 x 4 = 20,small-sized_low-interference,small-sized,low-interference,5,IncorrectRESP,d,0,0,0,0,0,18,18,18,,,,,,,,,,,,,,,298.61314064199996,None,299.1291338709998,None,301.1296228649999,None,301.87980590000006,None,302.1295363620002,None,302.1295363620002,None,d,0,0.7105411200000162,302.1295363620002,None,302.8626805539998,None,302.8626805539998,None,d,0.16136045599978388,302.8626805539998,None,303.0464058159996,None,,,,,sub-06,12/03/2002,2: Female,08/09/2023,001,1: right,2023_Sep_08_1721,[FINAL]_fmri_multiplication,2021.2.3,59.75384047
block1.xlsx,257.1,7.5,3.7,9 x 3,27,19,9 x 3 = 27,large-sized_high-interference,large-sized,high-interference,9,CorrectRESP,a,0,0,0,0,0,19,19,19,,,,,,,,,,,,,,,305.54648512899985,None,306.0463885070003,None,308.04646718099957,None,308.79636835899964,None,309.04679067399957,None,309.04679067399957,None,a,0,0.625293965,309.04679067399957,None,309.69600504699974,None,309.69600504699974,None,d,0.28008648899958644,309.69600504699974,None,309.9960547669998,None,,,,,sub-06,12/03/2002,2: Female,08/09/2023,001,1: right,2023_Sep_08_1721,[FINAL]_fmri_multiplication,2021.2.3,59.75384047
block1.xlsx,268.3,7.5,3.5,4 x 5,20,8,4 x 5 = 20,small-sized_high-interference,small-sized,high-interference,8,CorrectRESP,a,0,0,0,0,0,20,20,20,,,,,,,,,,,,,,,313.69641920899994,None,314.19634754100025,None,316.1964143180003,None,316.9466110929998,None,317.19673842799966,None,317.19673842799966,None,a,0,0.5394056100003581,317.19673842799966,None,317.7630934429999,None,317.7630934429999,None,d,0.18903107099959016,317.7630934429999,None,317.97956569799953,None,,,,,sub-06,12/03/2002,2: Female,08/09/2023,001,1: right,2023_Sep_08_1721,[FINAL]_fmri_multiplication,2021.2.3,59.75384047
block1.xlsx,279.3,7.5,11.6,9 x 9,72,16,9 x 9 = 72,large-sized_low-interference,large-sized,low-interference,6,IncorrectRESP,d,0,0,0,0,0,21,21,21,,,,,,,,,,,,,,,321.47655985500023,None,321.9712407,None,323.98011279799994,None,324.7302168819997,None,324.98016652000024,None,324.98016652000024,None,d,0,0.5559882549996473,324.98016652000024,None,325.56297388300027,None,325.56297388300027,None,d,0.17318215,325.56297388300027,None,325.7634439980002,None,,,,,sub-06,12/03/2002,2: Female,08/09/2023,001,1: right,2023_Sep_08_1721,[FINAL]_fmri_multiplication,2021.2.3,59.75384047
block1.xlsx,298.4,7.5,12.8,3 x 8,21,12,3 x 8 = 21,small-sized_high-interference,small-sized,high-interference,13,IncorrectRESP,d,0,0,0,0,0,22,22,22,,,,,,,,,,,,,,,337.36257759599994,None,337.86303196599965,None,339.86313546099973,None,340.61313647599945,None,340.8631624560003,None,340.8631624560003,None,d,0,0.680955209,340.8631624560003,None,341.56257930599986,None,341.56257930599986,None,d,0.15746240799944644,341.56257930599986,None,341.74629683700005,None,,,,,sub-06,12/03/2002,2: Female,08/09/2023,001,1: right,2023_Sep_08_1721,[FINAL]_fmri_multiplication,2021.2.3,59.75384047
block1.xlsx,318.7,7.5,8.8,8 x 2,18,5,8 x 2 = 18,small-sized_low-interference,small-sized,low-interference,7,IncorrectRESP,d,0,0,0,0,0,23,23,23,,,,,,,,,,,,,,,354.54343334700025,None,355.03813441500006,None,357.0470151689997,None,357.7968865120001,None,358.04650969700015,None,358.04650969700015,None,d,0,0.5776184400001512,358.04650969700015,None,358.64641514399955,None,358.64641514399955,None,d,0.16961979799998517,358.64641514399955,None,358.8469592,None,,,,,sub-06,12/03/2002,2: Female,08/09/2023,001,1: right,2023_Sep_08_1721,[FINAL]_fmri_multiplication,2021.2.3,59.75384047
block1.xlsx,,,,,,,,,,,,,,0,0,0,0,,,,,0,0,0,0,,,,,,,,,,,,,,,,,,,,,,,,,,,,,,,,,,,,,,367.66555365099975,None,367.66555365099975,None,sub-06,12/03/2002,2: Female,08/09/2023,001,1: right,2023_Sep_08_1721,[FINAL]_fmri_multiplication,2021.2.3,59.75384047
block1.xlsx,,,,,,,,,,,,,,0,0,0,0,,,,,1,0,1,0,,,,,,,,,,,,,,,,,,,,,,,,,,,,,,,,,,,,,,368.6822779029999,None,368.6822779029999,None,sub-06,12/03/2002,2: Female,08/09/2023,001,1: right,2023_Sep_08_1721,[FINAL]_fmri_multiplication,2021.2.3,59.75384047
block1.xlsx,,,,,,,,,,,,,,0,0,0,0,,,,,2,0,2,0,,,,,,,,,,,,,,,,,,,,,,,,,,,,,,,,,,,,,,369.6833514459995,None,369.6833514459995,None,sub-06,12/03/2002,2: Female,08/09/2023,001,1: right,2023_Sep_08_1721,[FINAL]_fmri_multiplication,2021.2.3,59.75384047
block1.xlsx,,,,,,,,,,,,,,0,0,0,0,,,,,3,0,3,0,,,,,,,,,,,,,,,,,,,,,,,,,,,,,,,,,,,,,,370.68130922399996,None,370.68130922399996,None,sub-06,12/03/2002,2: Female,08/09/2023,001,1: right,2023_Sep_08_1721,[FINAL]_fmri_multiplication,2021.2.3,59.75384047
block1.xlsx,,,,,,,,,,,,,,0,0,0,0,,,,,4,0,4,0,,,,,,,,,,,,,,,,,,,,,,,,,,,,,,,,,,,,,,371.68044866499986,None,371.68044866499986,None,sub-06,12/03/2002,2: Female,08/09/2023,001,1: right,2023_Sep_08_1721,[FINAL]_fmri_multiplication,2021.2.3,59.75384047
block1.xlsx,,,,,,,,,,,,,,0,0,0,0,,,,,5,0,5,0,,,,,,,,,,,,,,,,,,,,,,,,,,,,,,,,,,,,,,372.68220640799973,None,372.68220640799973,None,sub-06,12/03/2002,2: Female,08/09/2023,001,1: right,2023_Sep_08_1721,[FINAL]_fmri_multiplication,2021.2.3,59.75384047
block1.xlsx,,,,,,,,,,,,,,0,0,0,0,,,,,6,0,6,0,,,,,,,,,,,,,,,,,,,,,,,,,,,,,,,,,,,,,,373.6941877569998,None,373.6941877569998,None,sub-06,12/03/2002,2: Female,08/09/2023,001,1: right,2023_Sep_08_1721,[FINAL]_fmri_multiplication,2021.2.3,59.75384047
block1.xlsx,,,,,,,,,,,,,,0,0,0,0,,,,,7,0,7,0,,,,,,,,,,,,,,,,,,,,,,,,,,,,,,,,,,,,,,374.67992712700016,None,374.67992712700016,None,sub-06,12/03/2002,2: Female,08/09/2023,001,1: right,2023_Sep_08_1721,[FINAL]_fmri_multiplication,2021.2.3,59.75384047
block1.xlsx,,,,,,,,,,,,,,0,0,0,0,,,,,8,0,8,0,,,,,,,,,,,,,,,,,,,,,,,,,,,,,,,,,,,,,,375.6800678,None,375.6800678,None,sub-06,12/03/2002,2: Female,08/09/2023,001,1: right,2023_Sep_08_1721,[FINAL]_fmri_multiplication,2021.2.3,59.75384047
block1.xlsx,,,,,,,,,,,,,,0,0,0,0,,,,,9,0,9,0,,,,,,,,,,,,,,,,,,,,,,,,,,,,,,,,,,,,,,376.68152178499986,None,376.68152178499986,None,sub-06,12/03/2002,2: Female,08/09/2023,001,1: right,2023_Sep_08_1721,[FINAL]_fmri_multiplication,2021.2.3,59.75384047
block1.xlsx,,,,,,,,,,,,,,0,0,0,0,,,,,10,0,10,0,,,,,,,,,,,,,,,,,,,,,,,,,,,,,,,,,,,,,,377.6798321369997,None,377.6798321369997,None,sub-06,12/03/2002,2: Female,08/09/2023,001,1: right,2023_Sep_08_1721,[FINAL]_fmri_multiplication,2021.2.3,59.75384047
block1.xlsx,,,,,,,,,,,,,,0,0,0,0,,,,,11,0,11,0,,,,,,,,,,,,,,,,,,,,,,,,,,,,,,,,,,,,,,378.68010549300016,None,378.68010549300016,None,sub-06,12/03/2002,2: Female,08/09/2023,001,1: right,2023_Sep_08_1721,[FINAL]_fmri_multiplication,2021.2.3,59.75384047
block1.xlsx,,,,,,,,,,,,,,0,0,0,0,,,,,12,0,12,0,,,,,,,,,,,,,,,,,,,,,,,,,,,,,,,,,,,,,,379.68086207000033,None,379.68086207000033,None,sub-06,12/03/2002,2: Female,08/09/2023,001,1: right,2023_Sep_08_1721,[FINAL]_fmri_multiplication,2021.2.3,59.75384047
block1.xlsx,,,,,,,,,,,,,,0,0,0,0,,,,,13,0,13,0,,,,,,,,,,,,,,,,,,,,,,,,,,,,,,,,,,,,,,380.6808272620001,None,380.6808272620001,None,sub-06,12/03/2002,2: Female,08/09/2023,001,1: right,2023_Sep_08_1721,[FINAL]_fmri_multiplication,2021.2.3,59.75384047
block1.xlsx,,,,,,,,,,,,,,0,0,0,0,,,,,14,0,14,0,,,,,,,,,,,,,,,,,,,,,,,,,,,,,,,,,,,,,,381.6801122850002,None,381.6801122850002,None,sub-06,12/03/2002,2: Female,08/09/2023,001,1: right,2023_Sep_08_1721,[FINAL]_fmri_multiplication,2021.2.3,59.75384047
block1.xlsx,,,,,,,,,,,,,,0,0,0,0,,,,,15,0,15,0,,,,,,,,,,,,,,,,,,,,,,,,,,,,,,,,,,,,,,382.6805644420001,None,382.6805644420001,None,sub-06,12/03/2002,2: Female,08/09/2023,001,1: right,2023_Sep_08_1721,[FINAL]_fmri_multiplication,2021.2.3,59.75384047
block1.xlsx,,,,,,,,,,,,,,0,0,0,0,,,,,16,0,16,0,,,,,,,,,,,,,,,,,,,,,,,,,,,,,,,,,,,,,,383.68049126999995,None,383.68049126999995,None,sub-06,12/03/2002,2: Female,08/09/2023,001,1: right,2023_Sep_08_1721,[FINAL]_fmri_multiplication,2021.2.3,59.75384047
block1.xlsx,,,,,,,,,,,,,,0,0,0,0,,,,,17,0,17,0,,,,,,,,,,,,,,,,,,,,,,,,,,,,,,,,,,,,,,384.6811649,None,384.6811649,None,sub-06,12/03/2002,2: Female,08/09/2023,001,1: right,2023_Sep_08_1721,[FINAL]_fmri_multiplication,2021.2.3,59.75384047
block1.xlsx,,,,,,,,,,,,,,0,0,0,0,,,,,18,0,18,0,,,,,,,,,,,,,,,,,,,,,,,,,,,,,,,,,,,,,,385.6801218239998,None,385.6801218239998,None,sub-06,12/03/2002,2: Female,08/09/2023,001,1: right,2023_Sep_08_1721,[FINAL]_fmri_multiplication,2021.2.3,59.75384047
block1.xlsx,,,,,,,,,,,,,,0,0,0,0,,,,,19,0,19,0,,,,,,,,,,,,,,,,,,,,,,,,,,,,,,,,,,,,,,386.68245071599995,None,386.68245071599995,None,sub-06,12/03/2002,2: Female,08/09/2023,001,1: right,2023_Sep_08_1721,[FINAL]_fmri_multiplication,2021.2.3,59.75384047
block1.xlsx,,,,,,,,,,,,,,0,0,0,0,,,,,20,0,20,0,,,,,,,,,,,,,,,,,,,,,,,,,,,,,,,,,,,,,,387.68007966000005,None,387.68007966000005,None,sub-06,12/03/2002,2: Female,08/09/2023,001,1: right,2023_Sep_08_1721,[FINAL]_fmri_multiplication,2021.2.3,59.75384047
block1.xlsx,,,,,,,,,,,,,,0,0,0,0,,,,,21,0,21,0,,,,,,,,,,,,,,,,,,,,,,,,,,,,,,,,,,,,,,388.6800900919998,None,388.6800900919998,None,sub-06,12/03/2002,2: Female,08/09/2023,001,1: right,2023_Sep_08_1721,[FINAL]_fmri_multiplication,2021.2.3,59.75384047
block1.xlsx,,,,,,,,,,,,,,0,0,0,0,,,,,22,0,22,0,,,,,,,,,,,,,,,,,,,,,,,,,,,,,,,,,,,,,,389.68147696399956,None,389.68147696399956,None,sub-06,12/03/2002,2: Female,08/09/2023,001,1: right,2023_Sep_08_1721,[FINAL]_fmri_multiplication,2021.2.3,59.75384047
block1.xlsx,,,,,,,,,,,,,,0,0,0,0,,,,,23,0,23,0,,,,,,,,,,,,,,,,,,,,,,,,,,,,,,,,,,,,,,390.68133782099994,None,390.68133782099994,None,sub-06,12/03/2002,2: Female,08/09/2023,001,1: right,2023_Sep_08_1721,[FINAL]_fmri_multiplication,2021.2.3,59.75384047
block1.xlsx,,,,,,,,,,,,,,0,0,0,0,,,,,24,0,24,0,,,,,,,,,,,,,,,,,,,,,,,,,,,,,,,,,,,,,,391.6802648140001,None,391.6802648140001,None,sub-06,12/03/2002,2: Female,08/09/2023,001,1: right,2023_Sep_08_1721,[FINAL]_fmri_multiplication,2021.2.3,59.75384047
block1.xlsx,,,,,,,,,,,,,,0,0,0,0,,,,,25,0,25,0,,,,,,,,,,,,,,,,,,,,,,,,,,,,,,,,,,,,,,392.6803141959999,None,392.6803141959999,None,sub-06,12/03/2002,2: Female,08/09/2023,001,1: right,2023_Sep_08_1721,[FINAL]_fmri_multiplication,2021.2.3,59.75384047
block1.xlsx,,,,,,,,,,,,,,0,0,0,0,,,,,26,0,26,0,,,,,,,,,,,,,,,,,,,,,,,,,,,,,,,,,,,,,,393.68032731600033,None,393.68032731600033,None,sub-06,12/03/2002,2: Female,08/09/2023,001,1: right,2023_Sep_08_1721,[FINAL]_fmri_multiplication,2021.2.3,59.75384047
block1.xlsx,,,,,,,,,,,,,,0,0,0,0,,,,,27,0,27,0,,,,,,,,,,,,,,,,,,,,,,,,,,,,,,,,,,,,,,394.6800855189995,None,394.6800855189995,None,sub-06,12/03/2002,2: Female,08/09/2023,001,1: right,2023_Sep_08_1721,[FINAL]_fmri_multiplication,2021.2.3,59.75384047
block1.xlsx,,,,,,,,,,,,,,0,0,0,0,,,,,28,0,28,0,,,,,,,,,,,,,,,,,,,,,,,,,,,,,,,,,,,,,,395.68069823899987,None,395.68069823899987,None,sub-06,12/03/2002,2: Female,08/09/2023,001,1: right,2023_Sep_08_1721,[FINAL]_fmri_multiplication,2021.2.3,59.75384047
block1.xlsx,,,,,,,,,,,,,,0,0,0,0,,,,,29,0,29,0,,,,,,,,,,,,,,,,,,,,,,,,,,,,,,,,,,,,,,396.6800836909997,None,396.6800836909997,None,sub-06,12/03/2002,2: Female,08/09/2023,001,1: right,2023_Sep_08_1721,[FINAL]_fmri_multiplication,2021.2.3,59.75384047
block1.xlsx,,,,,,,,,,,,,,0,0,0,0,,,,,,,,,,,,,,,,,,,,,,,,,,,,,,,,,,,,,,,,,,,,,,,,,,sub-06,12/03/2002,2: Female,08/09/2023,001,1: right,2023_Sep_08_1721,[FINAL]_fmri_multiplication,2021.2.3,59.75384047
block2.xlsx,10,7.5,3.4,3 x 4,15,9,3 x 4 = 15,small-sized_high-interference,small-sized,high-interference,10,IncorrectRESP,d,0,1,1,1,0,0,0,0,,,,,,,,,,,,,397.6798331760001,None,407.7002849499995,None,408.1798669099999,None,410.17935251200015,None,410.9295108139995,None,411.1798235770002,None,411.1798235770002,None,d,0,0.5403341000001092,411.1798235770002,None,411.746516,None,411.746516,None,d,0.1895848450003541,411.746516,None,411.96266217099947,None,,,,,sub-06,12/03/2002,2: Female,08/09/2023,001,1: right,2023_Sep_08_1721,[FINAL]_fmri_multiplication,2021.2.3,59.75384047
block2.xlsx,20.9,7.5,7,9 x 5,40,15,9 x 5 = 40,large-sized_low-interference,large-sized,low-interference,6,IncorrectRESP,d,0,1,1,1,0,1,1,1,,,,,,,,,,,,,,,415.3629627949995,None,415.86302688399974,None,417.86327435099975,None,418.61321735899946,None,418.8630505609999,None,418.8630505609999,None,d,0,0.4810437250007453,418.8630505609999,None,419.3626141630002,None,419.3626141630002,None,d,0.1575581319993944,419.3626141630002,None,419.54621010200026,None,,,,,sub-06,12/03/2002,2: Female,08/09/2023,001,1: right,2023_Sep_08_1721,[FINAL]_fmri_multiplication,2021.2.3,59.75384047
block2.xlsx,35.4,7.5,6.6,6 x 4,24,10,6 x 4 = 24,small-sized_high-interference,small-sized,high-interference,12,CorrectRESP,a,0,1,1,1,0,2,2,2,,,,,,,,,,,,,,,426.5468370259996,None,427.0466736999997,None,429.04637025600005,None,429.7968473359997,None,430.0470169099999,None,430.0470169099999,None,d,1,0.4651586979998683,430.0470169099999,None,430.5295787160003,None,430.5295787160003,None,d,0.6624920989997918,430.5295787160003,None,431.2125779090002,None,,,,,sub-06,12/03/2002,2: Female,08/09/2023,001,1: right,2023_Sep_08_1721,[FINAL]_fmri_multiplication,2021.2.3,59.75384047
block2.xlsx,49.5,7.5,12,7 x 6,42,23,7 x 6 = 42,large-sized_high-interference,large-sized,high-interference,22,CorrectRESP,a,0,1,1,1,0,3,3,3,,,,,,,,,,,,,,,437.8132032880003,None,438.3127278669999,None,440.31319957899996,None,441.06307479099996,None,441.3131036,None,441.3131036,None,a,0,0.5429573839992372,441.3131036,None,441.87929207100024,None,441.87929207100024,None,d,0.16876238200075022,441.87929207100024,None,442.07956693399956,None,,,,,sub-06,12/03/2002,2: Female,08/09/2023,001,1: right,2023_Sep_08_1721,[FINAL]_fmri_multiplication,2021.2.3,59.75384047
block2.xlsx,69,7.5,4.9,6 x 2,12,6,6 x 2 = 12,small-sized_low-interference,small-sized,low-interference,3,CorrectRESP,a,0,1,1,1,0,4,4,4,,,,,,,,,,,,,,,454.07969430999947,None,454.5797353799999,None,456.57982864899986,None,457.3297929,None,457.5796815849999,None,457.5796815849999,None,a,0,0.5244607380000161,457.5796815849999,None,458.1294284309997,None,458.1294284309997,None,d,0.17472051299955638,458.1294284309997,None,458.32966297500025,None,,,,,sub-06,12/03/2002,2: Female,08/09/2023,001,1: right,2023_Sep_08_1721,[FINAL]_fmri_multiplication,2021.2.3,59.75384047
block2.xlsx,81.4,7.5,6.6,4 x 9,32,20,4 x 9 = 32,large-sized_high-interference,large-sized,high-interference,9,IncorrectRESP,d,0,1,1,1,0,5,5,5,,,,,,,,,,,,,,,463.2264713630002,None,463.7349260149995,None,465.7468192440001,None,466.49685244400007,None,466.7464836419995,None,466.7464836419995,None,a,1,1.1497192209999412,466.7464836419995,None,467.9134151090002,None,467.9134151090002,None,a,0.9747084970003925,467.9134151090002,None,468.9129385770002,None,,,,,sub-06,12/03/2002,2: Female,08/09/2023,001,1: right,2023_Sep_08_1721,[FINAL]_fmri_multiplication,2021.2.3,59.75384047
block2.xlsx,95.5,7.5,2.6,5 x 5,30,3,5 x 5 = 30,small-sized_low-interference,small-sized,low-interference,3,IncorrectRESP,d,0,1,1,1,0,6,6,6,,,,,,,,,,,,,,,475.5131464779997,None,476.0129897910001,None,478.01321304799967,None,478.76312384799985,None,479.0123863709996,None,479.0123863709996,None,d,0,0.5955805220000912,479.0123863709996,None,479.6288440669996,None,479.6288440669996,None,d,0.1631985390004047,479.6288440669996,None,479.8126562409998,None,,,,,sub-06,12/03/2002,2: Female,08/09/2023,001,1: right,2023_Sep_08_1721,[FINAL]_fmri_multiplication,2021.2.3,59.75384047
block2.xlsx,105.6,7.5,3.7,8 x 4,32,24,8 x 4 = 32,large-sized_high-interference,large-sized,high-interference,25,CorrectRESP,a,0,1,1,1,0,7,7,7,,,,,,,,,,,,,,,482.41239812299955,None,482.9127941959996,None,484.9131741049996,None,485.66298147699945,None,485.91312844299955,None,485.91312844299955,None,a,0,0.5349205500006065,485.91312844299955,None,486.47951976700006,None,486.47951976700006,None,d,0.15254884800015134,486.47951976700006,None,486.66324883000016,None,,,,,sub-06,12/03/2002,2: Female,08/09/2023,001,1: right,2023_Sep_08_1721,[FINAL]_fmri_multiplication,2021.2.3,59.75384047
block2.xlsx,116.8,7.5,3.1,2 x 9,16,2,2 x 9 = 16,small-sized_low-interference,small-sized,low-interference,7,IncorrectRESP,d,0,1,1,1,0,8,8,8,,,,,,,,,,,,,,,490.3628943909998,None,490.8632690069999,None,492.8633588900002,None,493.6134341999996,None,493.8638051279995,None,493.8638051279995,None,d,0,0.6163115340004879,493.8638051279995,None,494.51059546600027,None,494.51059546600027,None,d,0.1855527389998315,494.51059546600027,None,494.7128724,None,,,,,sub-06,12/03/2002,2: Female,08/09/2023,001,1: right,2023_Sep_08_1721,[FINAL]_fmri_multiplication,2021.2.3,59.75384047
block2.xlsx,127.4,7.5,12.2,5 x 8,45,21,5 x 8 = 45,large-sized_high-interference,large-sized,high-interference,9,IncorrectRESP,d,0,1,1,1,0,9,9,9,,,,,,,,,,,,,,,497.8129887719997,None,498.31314504799957,None,500.31354859899966,None,501.06357995300004,None,501.3135171,None,501.3135171,None,d,0,0.6225117249996401,501.3135171,None,501.96292374099994,None,501.96292374099994,None,d,0.2691094209994844,501.96292374099994,None,502.2634666,None,,,,,sub-06,12/03/2002,2: Female,08/09/2023,001,1: right,2023_Sep_08_1721,[FINAL]_fmri_multiplication,2021.2.3,59.75384047
block2.xlsx,147.1,7.5,13.3,6 x 6,30,13,6 x 6 = 30,large-sized_low-interference,large-sized,low-interference,4,IncorrectRESP,d,0,1,1,1,0,10,10,10,,,,,,,,,,,,,,,514.4631807779997,None,514.9629951,None,516.9624319169998,None,517.7131210520001,None,517.9631204139996,None,517.9631204139996,None,d,0,0.6049536669997906,517.9631204139996,None,518.5961606969995,None,518.5961606969995,None,d,0.17997859899969626,518.5961606969995,None,518.7960136439997,None,,,,,sub-06,12/03/2002,2: Female,08/09/2023,001,1: right,2023_Sep_08_1721,[FINAL]_fmri_multiplication,2021.2.3,59.75384047
block2.xlsx,167.9,7.5,2.8,7 x 3,21,11,7 x 3 = 21,small-sized_high-interference,small-sized,high-interference,13,CorrectRESP,a,0,1,1,1,0,11,11,11,,,,,,,,,,,,,,,532.0968709,None,532.5968777,None,534.5967068589998,None,535.3468086060002,None,535.5970536059995,None,535.5970536059995,None,a,0,0.6430269600004976,535.5970536059995,None,536.2630676159997,None,536.2630676159997,None,d,0.16104627000004257,536.2630676159997,None,536.446313,None,,,,,sub-06,12/03/2002,2: Female,08/09/2023,001,1: right,2023_Sep_08_1721,[FINAL]_fmri_multiplication,2021.2.3,59.75384047
block2.xlsx,178.2,7.5,3.4,8 x 7,56,22,8 x 7 = 56,large-sized_high-interference,large-sized,high-interference,9,CorrectRESP,a,0,1,1,1,0,12,12,12,,,,,,,,,,,,,,,539.2464901920002,None,539.7463564199998,None,541.7463400260003,None,542.4962474909998,None,542.7462159739998,None,542.7462159739998,None,a,0,0.5178103080006622,542.7462159739998,None,543.2962150539997,None,543.2962150539997,None,d,0.18381738199968822,543.2962150539997,None,543.5134055,None,,,,,sub-06,12/03/2002,2: Female,08/09/2023,001,1: right,2023_Sep_08_1721,[FINAL]_fmri_multiplication,2021.2.3,59.75384047
block2.xlsx,189.1,7.5,3.9,3 x 8,24,12,3 x 8 = 24,small-sized_high-interference,small-sized,high-interference,13,CorrectRESP,a,0,1,1,1,0,13,13,13,,,,,,,,,,,,,,,546.9131852109995,None,547.4129078010001,None,549.4131943889997,None,550.1629270369995,None,550.4131134709996,None,550.4131134709996,None,a,0,0.5309874889999264,550.4131134709996,None,550.9624992609997,None,550.9624992609997,None,d,0.19764537300034135,550.9624992609997,None,551.1793565910002,None,,,,,sub-06,12/03/2002,2: Female,08/09/2023,001,1: right,2023_Sep_08_1721,[FINAL]_fmri_multiplication,2021.2.3,59.75384047
block2.xlsx,200.5,7.5,2,5 x 6,36,14,5 x 6 = 36,large-sized_low-interference,large-sized,low-interference,6,IncorrectRESP,d,0,1,1,1,0,14,14,14,,,,,,,,,,,,,,,555.0793509260002,None,555.5796477409995,None,557.5793778540001,None,558.3295450699998,None,558.5802924499994,None,558.5802924499994,None,d,0,0.5638315159994818,558.5802924499994,None,559.1626229659996,None,559.1626229659996,None,d,0.20548601200061967,559.1626229659996,None,559.3964774979995,None,,,,,sub-06,12/03/2002,2: Female,08/09/2023,001,1: right,2023_Sep_08_1721,[FINAL]_fmri_multiplication,2021.2.3,59.75384047
block2.xlsx,210,7.5,8.2,7 x 2,12,1,7 x 2 = 12,small-sized_low-interference,small-sized,low-interference,4,IncorrectRESP,d,0,1,1,1,0,15,15,15,,,,,,,,,,,,,,,561.3965493979995,None,561.8964734,None,563.8966480879999,None,564.6459434449998,None,564.8968443429994,None,564.8968443429994,None,d,0,0.5592184,564.8968443429994,None,565.4798509,None,565.4798509,None,d,0.16026110100028745,565.4798509,None,565.6634098269997,None,,,,,sub-06,12/03/2002,2: Female,08/09/2023,001,1: right,2023_Sep_08_1721,[FINAL]_fmri_multiplication,2021.2.3,59.75384047
block2.xlsx,225.7,7.5,6.5,9 x 9,81,16,9 x 9 = 81,large-sized_low-interference,large-sized,low-interference,6,CorrectRESP,a,0,1,1,1,0,16,16,16,,,,,,,,,,,,,,,573.8631768509995,None,574.3633042499996,None,576.3629003159995,None,577.1132422259998,None,577.3624027349997,None,577.3624027349997,None,a,0,0.5016154240001924,577.3624027349997,None,577.8964322960001,None,577.8964322960001,None,d,0.15961902100025327,577.8964322960001,None,578.0794950119998,None,,,,,sub-06,12/03/2002,2: Female,08/09/2023,001,1: right,2023_Sep_08_1721,[FINAL]_fmri_multiplication,2021.2.3,59.75384047
block2.xlsx,239.7,7.5,6.2,4 x 5,16,8,4 x 5 = 16,small-sized_high-interference,small-sized,high-interference,8,IncorrectRESP,d,0,1,1,1,0,17,17,17,,,,,,,,,,,,,,,584.5797380759996,None,585.0802377660002,None,587.0963514,None,587.8459556369999,None,588.0965429,None,588.0965429,None,d,0,0.575496683,588.0965429,None,588.6959869510001,None,588.6959869510001,None,d,0.1760174780001762,588.6959869510001,None,588.8963461849999,None,,,,,sub-06,12/03/2002,2: Female,08/09/2023,001,1: right,2023_Sep_08_1721,[FINAL]_fmri_multiplication,2021.2.3,59.75384047
block2.xlsx,253.4,7.5,11.8,8 x 2,16,5,8 x 2 = 16,small-sized_low-interference,small-sized,low-interference,7,CorrectRESP,a,0,1,1,1,0,18,18,18,,,,,,,,,,,,,,,595.0965723270001,None,595.5952557949995,None,597.5968603040001,None,598.3464248159999,None,598.5968790569996,None,598.5968790569996,None,a,0,0.5312658249995366,598.5968790569996,None,599.1461919920002,None,599.1461919920002,None,d,0.15795456199975888,599.1461919920002,None,599.3293160379999,None,,,,,sub-06,12/03/2002,2: Female,08/09/2023,001,1: right,2023_Sep_08_1721,[FINAL]_fmri_multiplication,2021.2.3,59.75384047
block2.xlsx,272.7,7.5,3.7,7 x 5,35,17,7 x 5 = 35,large-sized_low-interference,large-sized,low-interference,7,CorrectRESP,a,0,1,1,1,0,19,19,19,,,,,,,,,,,,,,,611.1297605130003,None,611.6296737390003,None,613.6297362,None,614.3798408590001,None,614.6296382889996,None,614.6296382889996,None,a,0,0.5304793579998659,614.6296382889996,None,615.1793135239996,None,615.1793135239996,None,d,0.1568481709991829,615.1793135239996,None,615.3628561979995,None,,,,,sub-06,12/03/2002,2: Female,08/09/2023,001,1: right,2023_Sep_08_1721,[FINAL]_fmri_multiplication,2021.2.3,59.75384047
block2.xlsx,283.9,7.5,6,6 x 3,15,7,6 x 3 = 15,small-sized_high-interference,small-sized,high-interference,8,IncorrectRESP,d,0,1,1,1,0,20,20,20,,,,,,,,,,,,,,,619.0632626249999,None,619.5627402949995,None,621.5630387020001,None,622.3131201179995,None,622.5632083,None,622.5632083,None,d,0,0.5649268360002679,622.5632083,None,623.1459351140002,None,623.1459351140002,None,d,0.1661758780001037,623.1459351140002,None,623.3291628609995,None,,,,,sub-06,12/03/2002,2: Female,08/09/2023,001,1: right,2023_Sep_08_1721,[FINAL]_fmri_multiplication,2021.2.3,59.75384047
block2.xlsx,297.4,7.5,6.1,9 x 3,24,19,9 x 3 = 24,large-sized_high-interference,large-sized,high-interference,9,IncorrectRESP,d,0,1,1,1,0,21,21,21,,,,,,,,,,,,,,,629.3297979839999,None,629.8292865969997,None,631.8297419310002,None,632.5797781129995,None,632.8300229790002,None,632.8300229790002,None,d,0,0.5860085809999873,632.8300229790002,None,633.4466290290002,None,633.4466290290002,None,d,0.17751308199967752,633.4466290290002,None,633.6463179330003,None,,,,,sub-06,12/03/2002,2: Female,08/09/2023,001,1: right,2023_Sep_08_1721,[FINAL]_fmri_multiplication,2021.2.3,59.75384047
block2.xlsx,311,7.5,5.1,4 x 4,16,4,4 x 4 = 16,small-sized_low-interference,small-sized,low-interference,5,CorrectRESP,a,0,1,1,1,0,22,22,22,,,,,,,,,,,,,,,639.7435393879996,None,640.2599319829997,None,642.2634415,None,643.0134886320002,None,643.2632877409997,None,643.2632877409997,None,a,0,0.45686693799962086,643.2632877409997,None,643.7466719819995,None,643.7466719819995,None,d,0.14147954799955187,643.7466719819995,None,643.9130400679996,None,,,,,sub-06,12/03/2002,2: Female,08/09/2023,001,1: right,2023_Sep_08_1721,[FINAL]_fmri_multiplication,2021.2.3,59.75384047
block2.xlsx,323.6,7.5,3.9,7 x 7,49,18,7 x 7 = 49,large-sized_low-interference,large-sized,low-interference,7,CorrectRESP,a,0,1,1,1,0,23,23,23,,,,,,,,,,,,,,,649.0133675019997,None,649.5128433970003,None,651.5131935549998,None,652.2633993950003,None,652.5128603490002,None,652.5128603490002,None,a,0,0.43928404999951454,652.5128603490002,None,652.9794168489998,None,652.9794168489998,None,d,0.1327642679998462,652.9794168489998,None,653.1293007249997,None,,,,,sub-06,12/03/2002,2: Female,08/09/2023,001,1: right,2023_Sep_08_1721,[FINAL]_fmri_multiplication,2021.2.3,59.75384047
block2.xlsx,,,,,,,,,,,,,,0,1,1,1,,,,,0,0,0,0,,,,,,,,,,,,,,,,,,,,,,,,,,,,,,,,,,,,,,657.0324458469995,None,657.0324458469995,None,sub-06,12/03/2002,2: Female,08/09/2023,001,1: right,2023_Sep_08_1721,[FINAL]_fmri_multiplication,2021.2.3,59.75384047
block2.xlsx,,,,,,,,,,,,,,0,1,1,1,,,,,1,0,1,0,,,,,,,,,,,,,,,,,,,,,,,,,,,,,,,,,,,,,,658.0467540090003,None,658.0467540090003,None,sub-06,12/03/2002,2: Female,08/09/2023,001,1: right,2023_Sep_08_1721,[FINAL]_fmri_multiplication,2021.2.3,59.75384047
block2.xlsx,,,,,,,,,,,,,,0,1,1,1,,,,,2,0,2,0,,,,,,,,,,,,,,,,,,,,,,,,,,,,,,,,,,,,,,659.0463988419997,None,659.0463988419997,None,sub-06,12/03/2002,2: Female,08/09/2023,001,1: right,2023_Sep_08_1721,[FINAL]_fmri_multiplication,2021.2.3,59.75384047
block2.xlsx,,,,,,,,,,,,,,0,1,1,1,,,,,3,0,3,0,,,,,,,,,,,,,,,,,,,,,,,,,,,,,,,,,,,,,,660.0467443810003,None,660.0467443810003,None,sub-06,12/03/2002,2: Female,08/09/2023,001,1: right,2023_Sep_08_1721,[FINAL]_fmri_multiplication,2021.2.3,59.75384047
block2.xlsx,,,,,,,,,,,,,,0,1,1,1,,,,,4,0,4,0,,,,,,,,,,,,,,,,,,,,,,,,,,,,,,,,,,,,,,661.0466895540003,None,661.0466895540003,None,sub-06,12/03/2002,2: Female,08/09/2023,001,1: right,2023_Sep_08_1721,[FINAL]_fmri_multiplication,2021.2.3,59.75384047
block2.xlsx,,,,,,,,,,,,,,0,1,1,1,,,,,5,0,5,0,,,,,,,,,,,,,,,,,,,,,,,,,,,,,,,,,,,,,,662.0472132309997,None,662.0472132309997,None,sub-06,12/03/2002,2: Female,08/09/2023,001,1: right,2023_Sep_08_1721,[FINAL]_fmri_multiplication,2021.2.3,59.75384047
block2.xlsx,,,,,,,,,,,,,,0,1,1,1,,,,,6,0,6,0,,,,,,,,,,,,,,,,,,,,,,,,,,,,,,,,,,,,,,663.0471448580001,None,663.0471448580001,None,sub-06,12/03/2002,2: Female,08/09/2023,001,1: right,2023_Sep_08_1721,[FINAL]_fmri_multiplication,2021.2.3,59.75384047
block2.xlsx,,,,,,,,,,,,,,0,1,1,1,,,,,7,0,7,0,,,,,,,,,,,,,,,,,,,,,,,,,,,,,,,,,,,,,,664.0471564379995,None,664.0471564379995,None,sub-06,12/03/2002,2: Female,08/09/2023,001,1: right,2023_Sep_08_1721,[FINAL]_fmri_multiplication,2021.2.3,59.75384047
block2.xlsx,,,,,,,,,,,,,,0,1,1,1,,,,,8,0,8,0,,,,,,,,,,,,,,,,,,,,,,,,,,,,,,,,,,,,,,665.0470940079995,None,665.0470940079995,None,sub-06,12/03/2002,2: Female,08/09/2023,001,1: right,2023_Sep_08_1721,[FINAL]_fmri_multiplication,2021.2.3,59.75384047
block2.xlsx,,,,,,,,,,,,,,0,1,1,1,,,,,9,0,9,0,,,,,,,,,,,,,,,,,,,,,,,,,,,,,,,,,,,,,,666.0478500660001,None,666.0478500660001,None,sub-06,12/03/2002,2: Female,08/09/2023,001,1: right,2023_Sep_08_1721,[FINAL]_fmri_multiplication,2021.2.3,59.75384047
block2.xlsx,,,,,,,,,,,,,,0,1,1,1,,,,,10,0,10,0,,,,,,,,,,,,,,,,,,,,,,,,,,,,,,,,,,,,,,667.0461071560003,None,667.0461071560003,None,sub-06,12/03/2002,2: Female,08/09/2023,001,1: right,2023_Sep_08_1721,[FINAL]_fmri_multiplication,2021.2.3,59.75384047
block2.xlsx,,,,,,,,,,,,,,0,1,1,1,,,,,11,0,11,0,,,,,,,,,,,,,,,,,,,,,,,,,,,,,,,,,,,,,,668.0465714900001,None,668.0465714900001,None,sub-06,12/03/2002,2: Female,08/09/2023,001,1: right,2023_Sep_08_1721,[FINAL]_fmri_multiplication,2021.2.3,59.75384047
block2.xlsx,,,,,,,,,,,,,,0,1,1,1,,,,,12,0,12,0,,,,,,,,,,,,,,,,,,,,,,,,,,,,,,,,,,,,,,669.0487059500001,None,669.0487059500001,None,sub-06,12/03/2002,2: Female,08/09/2023,001,1: right,2023_Sep_08_1721,[FINAL]_fmri_multiplication,2021.2.3,59.75384047
block2.xlsx,,,,,,,,,,,,,,0,1,1,1,,,,,13,0,13,0,,,,,,,,,,,,,,,,,,,,,,,,,,,,,,,,,,,,,,670.0335348480003,None,670.0335348480003,None,sub-06,12/03/2002,2: Female,08/09/2023,001,1: right,2023_Sep_08_1721,[FINAL]_fmri_multiplication,2021.2.3,59.75384047
block2.xlsx,,,,,,,,,,,,,,0,1,1,1,,,,,14,0,14,0,,,,,,,,,,,,,,,,,,,,,,,,,,,,,,,,,,,,,,671.0608163229999,None,671.0608163229999,None,sub-06,12/03/2002,2: Female,08/09/2023,001,1: right,2023_Sep_08_1721,[FINAL]_fmri_multiplication,2021.2.3,59.75384047
block2.xlsx,,,,,,,,,,,,,,0,1,1,1,,,,,15,0,15,0,,,,,,,,,,,,,,,,,,,,,,,,,,,,,,,,,,,,,,672.0468412669998,None,672.0468412669998,None,sub-06,12/03/2002,2: Female,08/09/2023,001,1: right,2023_Sep_08_1721,[FINAL]_fmri_multiplication,2021.2.3,59.75384047
block2.xlsx,,,,,,,,,,,,,,0,1,1,1,,,,,16,0,16,0,,,,,,,,,,,,,,,,,,,,,,,,,,,,,,,,,,,,,,673.0470137069997,None,673.0470137069997,None,sub-06,12/03/2002,2: Female,08/09/2023,001,1: right,2023_Sep_08_1721,[FINAL]_fmri_multiplication,2021.2.3,59.75384047
block2.xlsx,,,,,,,,,,,,,,0,1,1,1,,,,,17,0,17,0,,,,,,,,,,,,,,,,,,,,,,,,,,,,,,,,,,,,,,674.0472020300003,None,674.0472020300003,None,sub-06,12/03/2002,2: Female,08/09/2023,001,1: right,2023_Sep_08_1721,[FINAL]_fmri_multiplication,2021.2.3,59.75384047
block2.xlsx,,,,,,,,,,,,,,0,1,1,1,,,,,18,0,18,0,,,,,,,,,,,,,,,,,,,,,,,,,,,,,,,,,,,,,,675.0483458,None,675.0483458,None,sub-06,12/03/2002,2: Female,08/09/2023,001,1: right,2023_Sep_08_1721,[FINAL]_fmri_multiplication,2021.2.3,59.75384047
block2.xlsx,,,,,,,,,,,,,,0,1,1,1,,,,,19,0,19,0,,,,,,,,,,,,,,,,,,,,,,,,,,,,,,,,,,,,,,676.0468746289998,None,676.0468746289998,None,sub-06,12/03/2002,2: Female,08/09/2023,001,1: right,2023_Sep_08_1721,[FINAL]_fmri_multiplication,2021.2.3,59.75384047
block2.xlsx,,,,,,,,,,,,,,0,1,1,1,,,,,20,0,20,0,,,,,,,,,,,,,,,,,,,,,,,,,,,,,,,,,,,,,,677.0465935969996,None,677.0465935969996,None,sub-06,12/03/2002,2: Female,08/09/2023,001,1: right,2023_Sep_08_1721,[FINAL]_fmri_multiplication,2021.2.3,59.75384047
block2.xlsx,,,,,,,,,,,,,,0,1,1,1,,,,,21,0,21,0,,,,,,,,,,,,,,,,,,,,,,,,,,,,,,,,,,,,,,678.0473271,None,678.0473271,None,sub-06,12/03/2002,2: Female,08/09/2023,001,1: right,2023_Sep_08_1721,[FINAL]_fmri_multiplication,2021.2.3,59.75384047
block2.xlsx,,,,,,,,,,,,,,0,1,1,1,,,,,22,0,22,0,,,,,,,,,,,,,,,,,,,,,,,,,,,,,,,,,,,,,,679.0479844189995,None,679.0479844189995,None,sub-06,12/03/2002,2: Female,08/09/2023,001,1: right,2023_Sep_08_1721,[FINAL]_fmri_multiplication,2021.2.3,59.75384047
block2.xlsx,,,,,,,,,,,,,,0,1,1,1,,,,,23,0,23,0,,,,,,,,,,,,,,,,,,,,,,,,,,,,,,,,,,,,,,680.0462257970003,None,680.0462257970003,None,sub-06,12/03/2002,2: Female,08/09/2023,001,1: right,2023_Sep_08_1721,[FINAL]_fmri_multiplication,2021.2.3,59.75384047
block2.xlsx,,,,,,,,,,,,,,0,1,1,1,,,,,24,0,24,0,,,,,,,,,,,,,,,,,,,,,,,,,,,,,,,,,,,,,,681.0469763709998,None,681.0469763709998,None,sub-06,12/03/2002,2: Female,08/09/2023,001,1: right,2023_Sep_08_1721,[FINAL]_fmri_multiplication,2021.2.3,59.75384047
block2.xlsx,,,,,,,,,,,,,,0,1,1,1,,,,,25,0,25,0,,,,,,,,,,,,,,,,,,,,,,,,,,,,,,,,,,,,,,682.0462759330003,None,682.0462759330003,None,sub-06,12/03/2002,2: Female,08/09/2023,001,1: right,2023_Sep_08_1721,[FINAL]_fmri_multiplication,2021.2.3,59.75384047
block2.xlsx,,,,,,,,,,,,,,0,1,1,1,,,,,26,0,26,0,,,,,,,,,,,,,,,,,,,,,,,,,,,,,,,,,,,,,,683.0461959510003,None,683.0461959510003,None,sub-06,12/03/2002,2: Female,08/09/2023,001,1: right,2023_Sep_08_1721,[FINAL]_fmri_multiplication,2021.2.3,59.75384047
block2.xlsx,,,,,,,,,,,,,,0,1,1,1,,,,,27,0,27,0,,,,,,,,,,,,,,,,,,,,,,,,,,,,,,,,,,,,,,684.0464870169999,None,684.0464870169999,None,sub-06,12/03/2002,2: Female,08/09/2023,001,1: right,2023_Sep_08_1721,[FINAL]_fmri_multiplication,2021.2.3,59.75384047
block2.xlsx,,,,,,,,,,,,,,0,1,1,1,,,,,28,0,28,0,,,,,,,,,,,,,,,,,,,,,,,,,,,,,,,,,,,,,,685.0465133990001,None,685.0465133990001,None,sub-06,12/03/2002,2: Female,08/09/2023,001,1: right,2023_Sep_08_1721,[FINAL]_fmri_multiplication,2021.2.3,59.75384047
block2.xlsx,,,,,,,,,,,,,,0,1,1,1,,,,,29,0,29,0,,,,,,,,,,,,,,,,,,,,,,,,,,,,,,,,,,,,,,686.0468915339998,None,686.0468915339998,None,sub-06,12/03/2002,2: Female,08/09/2023,001,1: right,2023_Sep_08_1721,[FINAL]_fmri_multiplication,2021.2.3,59.75384047
block2.xlsx,,,,,,,,,,,,,,0,1,1,1,,,,,,,,,,,,,,,,,,,,,,,,,,,,,,,,,,,,,,,,,,,,,,,,,,sub-06,12/03/2002,2: Female,08/09/2023,001,1: right,2023_Sep_08_1721,[FINAL]_fmri_multiplication,2021.2.3,59.75384047
block3.xlsx,10,7.5,5.9,6 x 4,24,10,6 x 4 = 24,small-sized_high-interference,small-sized,high-interference,12,CorrectRESP,a,0,2,2,2,0,0,0,0,,,,,,,,,,,,,687.0478489679999,None,697.0672469609999,None,697.5465051000001,None,699.5462190999997,None,700.2959880299995,None,700.5461771769997,None,700.5461771769997,None,a,0,0.42991152400009014,700.5461771769997,None,700.9959233170002,None,700.9959233170002,None,d,0.17219581799963635,700.9959233170002,None,701.1964137049999,None,,,,,sub-06,12/03/2002,2: Female,08/09/2023,001,1: right,2023_Sep_08_1721,[FINAL]_fmri_multiplication,2021.2.3,59.75384047
block3.xlsx,23.4,7.5,2,6 x 6,30,13,6 x 6 = 30,large-sized_low-interference,large-sized,low-interference,4,IncorrectRESP,d,0,2,2,2,0,1,1,1,,,,,,,,,,,,,,,707.09678,None,707.5966041419997,None,709.5968837239998,None,710.3469185389995,None,710.5968128590002,None,710.5968128590002,None,d,0,0.5073263240001324,710.5968128590002,None,711.1298790949995,None,711.1298790949995,None,d,0.14216239799952746,711.1298790949995,None,711.2964278620002,None,,,,,sub-06,12/03/2002,2: Female,08/09/2023,001,1: right,2023_Sep_08_1721,[FINAL]_fmri_multiplication,2021.2.3,59.75384047
block3.xlsx,32.9,7.5,3.2,2 x 9,18,2,2 x 9 = 18,small-sized_low-interference,small-sized,low-interference,7,CorrectRESP,a,0,2,2,2,0,2,2,2,,,,,,,,,,,,,,,713.2968037949995,None,713.7968059509994,None,715.7964552,None,716.5467038850002,None,716.7962680909995,None,716.7962680909995,None,a,0,0.5479172270006529,716.7962680909995,None,717.3625003790003,None,717.3625003790003,None,d,0.16570664699975168,717.3625003790003,None,717.5459924,None,,,,,sub-06,12/03/2002,2: Female,08/09/2023,001,1: right,2023_Sep_08_1721,[FINAL]_fmri_multiplication,2021.2.3,59.75384047
block3.xlsx,43.6,7.5,6,3 x 4,12,9,3 x 4 = 12,small-sized_high-interference,small-sized,high-interference,10,CorrectRESP,a,0,2,2,2,0,3,3,3,,,,,,,,,,,,,,,720.7465653190002,None,721.2464313909995,None,723.2464827209997,None,723.9964615979998,None,724.2465143529998,None,724.2465143529998,None,a,0,0.4495825620006144,724.2465143529998,None,724.7130537829999,None,724.7130537829999,None,d,0.17508979499962152,724.7130537829999,None,724.9128786179999,None,,,,,sub-06,12/03/2002,2: Female,08/09/2023,001,1: right,2023_Sep_08_1721,[FINAL]_fmri_multiplication,2021.2.3,59.75384047
block3.xlsx,57.1,7.5,13.3,7 x 5,40,17,7 x 5 = 40,large-sized_low-interference,large-sized,low-interference,7,IncorrectRESP,d,0,2,2,2,0,4,4,4,,,,,,,,,,,,,,,730.9126879200003,None,731.4132095679997,None,733.4130830240001,None,734.1631647140002,None,734.41324,None,734.41324,None,d,0,0.5228078969994385,734.41324,None,734.9623939829999,None,734.9623939829999,None,d,0.10168690099999367,734.9623939829999,None,735.0963516040001,None,,,,,sub-06,12/03/2002,2: Female,08/09/2023,001,1: right,2023_Sep_08_1721,[FINAL]_fmri_multiplication,2021.2.3,59.75384047
block3.xlsx,77.9,7.5,2,8 x 7,56,22,8 x 7 = 56,large-sized_high-interference,large-sized,high-interference,9,CorrectRESP,a,0,2,2,2,0,5,5,5,,,,,,,,,,,,,,,748.3968577559999,None,748.8963340569999,None,750.8964808049996,None,751.6464319799998,None,751.8962645860001,None,751.8962645860001,None,a,0,0.43987817200013524,751.8962645860001,None,752.3632319,None,752.3632319,None,d,0.13285337800061825,752.3632319,None,752.5131978689997,None,,,,,sub-06,12/03/2002,2: Female,08/09/2023,001,1: right,2023_Sep_08_1721,[FINAL]_fmri_multiplication,2021.2.3,59.75384047
block3.xlsx,87.4,7.5,2.6,9 x 9,81,16,9 x 9 = 81,large-sized_low-interference,large-sized,low-interference,6,CorrectRESP,a,0,2,2,2,0,6,6,6,,,,,,,,,,,,,,,754.5130420489995,None,755.0129691459997,None,757.0130956370003,None,757.7631142069995,None,758.0125500650001,None,758.0125500650001,None,a,0,0.4275570139998308,758.0125500650001,None,758.4626811150001,None,758.4626811150001,None,d,0.13735787899986462,758.4626811150001,None,758.6298273969996,None,,,,,sub-06,12/03/2002,2: Female,08/09/2023,001,1: right,2023_Sep_08_1721,[FINAL]_fmri_multiplication,2021.2.3,59.75384047
block3.xlsx,97.5,7.5,2.7,4 x 5,20,8,4 x 5 = 20,small-sized_high-interference,small-sized,high-interference,8,CorrectRESP,a,0,2,2,2,0,7,7,7,,,,,,,,,,,,,,,761.2296574470001,None,761.7295543029995,None,763.7296247579998,None,764.4797737709996,None,764.7296023090003,None,764.7296023090003,None,a,0,0.4624606050001603,764.7296023090003,None,765.2126254409995,None,765.2126254409995,None,d,0.3635124110005563,765.2126254409995,None,765.5960477190001,None,,,,,sub-06,12/03/2002,2: Female,08/09/2023,001,1: right,2023_Sep_08_1721,[FINAL]_fmri_multiplication,2021.2.3,59.75384047
block3.xlsx,107.7,7.5,8.4,9 x 3,24,19,9 x 3 = 24,large-sized_high-interference,large-sized,high-interference,9,IncorrectRESP,d,0,2,2,2,0,8,8,8,,,,,,,,,,,,,,,768.2964458910001,None,768.7967011,None,770.7960397710003,None,771.5465058210002,None,771.7974328259997,None,771.7974328259997,None,d,0,0.4745921739995538,771.7974328259997,None,772.2962503139997,None,772.2962503139997,None,d,0.13579943999957322,772.2962503139997,None,772.4633718160003,None,,,,,sub-06,12/03/2002,2: Female,08/09/2023,001,1: right,2023_Sep_08_1721,[FINAL]_fmri_multiplication,2021.2.3,59.75384047
block3.xlsx,123.6,7.5,2.2,9 x 5,45,15,9 x 5 = 45,large-sized_low-interference,large-sized,low-interference,6,CorrectRESP,a,0,2,2,2,0,9,9,9,,,,,,,,,,,,,,,780.8590654139998,None,781.3552649840003,None,783.3634101649996,None,784.1131756759996,None,784.3631733000002,None,784.3631733000002,None,a,0,0.4049355489996742,784.3631733000002,None,784.7966781670002,None,784.7966781670002,None,d,0.13140252999983204,784.7966781670002,None,784.9458650380002,None,,,,,sub-06,12/03/2002,2: Female,08/09/2023,001,1: right,2023_Sep_08_1721,[FINAL]_fmri_multiplication,2021.2.3,59.75384047
block3.xlsx,133.3,7.5,9.7,4 x 4,16,4,4 x 4 = 16,small-sized_low-interference,small-sized,low-interference,5,CorrectRESP,a,0,2,2,2,0,10,10,10,,,,,,,,,,,,,,,787.1465295190001,None,787.6463490730002,None,789.6467745439995,None,790.3970103760003,None,790.6463513,None,790.6463513,None,a,0,0.46575353800017183,790.6463513,None,791.1294917,None,791.1294917,None,d,0.12657697400027246,791.1294917,None,791.2793102619999,None,,,,,sub-06,12/03/2002,2: Female,08/09/2023,001,1: right,2023_Sep_08_1721,[FINAL]_fmri_multiplication,2021.2.3,59.75384047
block3.xlsx,150.5,7.5,5.4,8 x 4,28,24,8 x 4 = 28,large-sized_high-interference,large-sized,high-interference,25,IncorrectRESP,d,0,2,2,2,0,11,11,11,,,,,,,,,,,,,,,800.9793686479998,None,801.4797942819996,None,803.4798193850002,None,804.2296738550003,None,804.4799066750002,None,804.4799066750002,None,d,0,0.47227034000025014,804.4799066750002,None,804.9794129330003,None,804.9794129330003,None,d,0.10873503800030448,804.9794129330003,None,805.1126337,None,,,,,sub-06,12/03/2002,2: Female,08/09/2023,001,1: right,2023_Sep_08_1721,[FINAL]_fmri_multiplication,2021.2.3,59.75384047
block3.xlsx,163.4,7.5,10.5,8 x 2,18,5,8 x 2 = 18,small-sized_low-interference,small-sized,low-interference,7,IncorrectRESP,d,0,2,2,2,0,12,12,12,,,,,,,,,,,,,,,810.5129461280003,None,811.0148122,None,813.0301739770002,None,813.7802301920001,None,814.0306694020001,None,814.0306694020001,None,d,0,0.41739200000029086,814.0306694020001,None,814.4801008559998,None,814.4801008559998,None,d,0.096034149,814.4801008559998,None,814.5964408159998,None,,,,,sub-06,12/03/2002,2: Female,08/09/2023,001,1: right,2023_Sep_08_1721,[FINAL]_fmri_multiplication,2021.2.3,59.75384047
block3.xlsx,181.4,7.5,3.5,7 x 6,48,23,7 x 6 = 48,large-sized_high-interference,large-sized,high-interference,22,IncorrectRESP,d,0,2,2,2,0,13,13,13,,,,,,,,,,,,,,,825.0966328309996,None,825.5963453949998,None,827.5964886390002,None,828.3462276239998,None,828.5962146,None,828.5962146,None,d,0,0.42796019299930776,828.5962146,None,829.0459684850002,None,829.0459684850002,None,d,0.11419209999985469,829.0459684850002,None,829.1793045909999,None,,,,,sub-06,12/03/2002,2: Female,08/09/2023,001,1: right,2023_Sep_08_1721,[FINAL]_fmri_multiplication,2021.2.3,59.75384047
block3.xlsx,192.4,7.5,11.8,5 x 6,30,14,5 x 6 = 30,large-sized_low-interference,large-sized,low-interference,6,CorrectRESP,a,0,2,2,2,0,14,14,14,,,,,,,,,,,,,,,832.6798374849996,None,833.1797580399998,None,835.1797954349995,None,835.9298539399997,None,836.1797798919997,None,836.1797798919997,None,a,0,0.3562720049994823,836.1797798919997,None,836.5614155519997,None,836.5614155519997,None,d,0.12669253100011701,836.5614155519997,None,836.7127683,None,,,,,sub-06,12/03/2002,2: Female,08/09/2023,001,1: right,2023_Sep_08_1721,[FINAL]_fmri_multiplication,2021.2.3,59.75384047
block3.xlsx,211.7,7.5,3.7,4 x 9,36,20,4 x 9 = 36,large-sized_high-interference,large-sized,high-interference,9,CorrectRESP,a,0,2,2,2,0,15,15,15,,,,,,,,,,,,,,,848.5099475039997,None,849.0057267579996,None,851.0135176,None,851.7634342989995,None,852.0134498529997,None,852.0134498529997,None,a,0,0.5066766220006684,852.0134498529997,None,852.5465018189998,None,852.5465018189998,None,d,0.13352915899940854,852.5465018189998,None,852.6967957730003,None,,,,,sub-06,12/03/2002,2: Female,08/09/2023,001,1: right,2023_Sep_08_1721,[FINAL]_fmri_multiplication,2021.2.3,59.75384047
block3.xlsx,222.9,7.5,2.5,7 x 7,56,18,7 x 7 = 56,large-sized_low-interference,large-sized,low-interference,7,IncorrectRESP,d,0,2,2,2,0,16,16,16,,,,,,,,,,,,,,,856.3966138939995,None,856.8962562400002,None,858.8969299660002,None,859.6634619739998,None,859.9131011019999,None,859.9131011019999,None,d,0,0.5110131780002121,859.9131011019999,None,860.4461065119995,None,860.4461065119995,None,d,0.12203535800017562,860.4461065119995,None,860.5965377880002,None,,,,,sub-06,12/03/2002,2: Female,08/09/2023,001,1: right,2023_Sep_08_1721,[FINAL]_fmri_multiplication,2021.2.3,59.75384047
block3.xlsx,232.9,7.5,9,6 x 3,15,7,6 x 3 = 15,small-sized_high-interference,small-sized,high-interference,8,IncorrectRESP,d,0,2,2,2,0,17,17,17,,,,,,,,,,,,,,,863.0964723320003,None,863.5961082,None,865.5963511069995,None,866.3461463009999,None,866.5965092770002,None,866.5965092770002,None,d,0,0.4276396380000733,866.5965092770002,None,867.0459640849995,None,867.0459640849995,None,d,0.10615675299959548,867.0459640849995,None,867.1797670549995,None,,,,,sub-06,12/03/2002,2: Female,08/09/2023,001,1: right,2023_Sep_08_1721,[FINAL]_fmri_multiplication,2021.2.3,59.75384047
block3.xlsx,249.4,7.5,9.5,7 x 2,12,1,7 x 2 = 12,small-sized_low-interference,small-sized,low-interference,4,IncorrectRESP,d,0,2,2,2,0,18,18,18,,,,,,,,,,,,,,,876.1794045280003,None,876.6799354659997,None,878.6798130839998,None,879.4296475450001,None,879.6801198960002,None,879.6801198960002,None,d,0,0.4080143239998506,879.6801198960002,None,880.1130931769994,None,880.1130931769994,None,d,0.10295242600022902,880.1130931769994,None,880.2466526999997,None,,,,,sub-06,12/03/2002,2: Female,08/09/2023,001,1: right,2023_Sep_08_1721,[FINAL]_fmri_multiplication,2021.2.3,59.75384047
block3.xlsx,266.4,7.5,11.1,5 x 8,40,21,5 x 8 = 40,large-sized_high-interference,large-sized,high-interference,9,CorrectRESP,a,0,2,2,2,0,19,19,19,,,,,,,,,,,,,,,889.7433920470003,None,890.2399753259997,None,892.2463198,None,892.9959519490003,None,893.2461353970002,None,893.2461353970002,None,a,0,0.5699071300005016,893.2461353970002,None,893.8463591,None,893.8463591,None,d,0.12179838999963977,893.8463591,None,893.9959934,None,,,,,sub-06,12/03/2002,2: Female,08/09/2023,001,1: right,2023_Sep_08_1721,[FINAL]_fmri_multiplication,2021.2.3,59.75384047
block3.xlsx,285,7.5,3.8,3 x 8,21,12,3 x 8 = 21,small-sized_high-interference,small-sized,high-interference,13,IncorrectRESP,d,0,2,2,2,0,20,20,20,,,,,,,,,,,,,,,905.0963636059996,None,905.5966775,None,907.5965150060001,None,908.3462272440001,None,908.5966252749995,None,908.5966252749995,None,d,0,0.4514152660003674,908.5966252749995,None,909.0794300150001,None,909.0794300150001,None,d,0.10471831599988946,909.0794300150001,None,909.2126289329999,None,,,,,sub-06,12/03/2002,2: Female,08/09/2023,001,1: right,2023_Sep_08_1721,[FINAL]_fmri_multiplication,2021.2.3,59.75384047
block3.xlsx,296.3,7.5,11.2,5 x 5,25,3,5 x 5 = 25,small-sized_low-interference,small-sized,low-interference,3,CorrectRESP,a,0,2,2,2,0,21,21,21,,,,,,,,,,,,,,,913.0128600299995,None,913.5127485069997,None,915.5131976749999,None,916.2604333150002,None,916.5056490810002,None,916.5056490810002,None,a,0,0.44650087500031077,916.5056490810002,None,916.9801064619996,None,916.9801064619996,None,d,0.11601618600070651,916.9801064619996,None,917.1131900669998,None,,,,,sub-06,12/03/2002,2: Female,08/09/2023,001,1: right,2023_Sep_08_1721,[FINAL]_fmri_multiplication,2021.2.3,59.75384047
block3.xlsx,315,7.5,2.6,7 x 3,24,11,7 x 3 = 24,small-sized_high-interference,small-sized,high-interference,13,IncorrectRESP,d,0,2,2,2,0,22,22,22,,,,,,,,,,,,,,,928.3131492820003,None,928.8128140600002,None,930.8132450860003,None,931.5631556,None,931.8137685490001,None,931.8137685490001,None,d,0,0.4582475899997007,931.8137685490001,None,932.2961649789995,None,932.2961649789995,None,d,0.10382686100001592,932.2961649789995,None,932.4298803290003,None,,,,,sub-06,12/03/2002,2: Female,08/09/2023,001,1: right,2023_Sep_08_1721,[FINAL]_fmri_multiplication,2021.2.3,59.75384047
block3.xlsx,325.1,7.5,2.4,6 x 2,10,6,6 x 2 = 10,small-sized_low-interference,small-sized,low-interference,3,IncorrectRESP,d,0,2,2,2,0,23,23,23,,,,,,,,,,,,,,,935.0297539550002,None,935.5295280230002,None,937.529571,None,938.2797956750001,None,938.5297932989997,None,938.5297932989997,None,d,0,0.45430831700014096,938.5297932989997,None,939.0127328079998,None,939.0127328079998,None,d,0.13136046099953091,939.0127328079998,None,939.1625035899997,None,,,,,sub-06,12/03/2002,2: Female,08/09/2023,001,1: right,2023_Sep_08_1721,[FINAL]_fmri_multiplication,2021.2.3,59.75384047
block3.xlsx,,,,,,,,,,,,,,0,2,2,2,,,,,0,0,0,0,,,,,,,,,,,,,,,,,,,,,,,,,,,,,,,,,,,,,,941.5633353,None,941.5633353,None,sub-06,12/03/2002,2: Female,08/09/2023,001,1: right,2023_Sep_08_1721,[FINAL]_fmri_multiplication,2021.2.3,59.75384047
block3.xlsx,,,,,,,,,,,,,,0,2,2,2,,,,,1,0,1,0,,,,,,,,,,,,,,,,,,,,,,,,,,,,,,,,,,,,,,942.5634113899996,942.5634113899996,942.5634113899996,942.5634113899996,sub-06,12/03/2002,2: Female,08/09/2023,001,1: right,2023_Sep_08_1721,[FINAL]_fmri_multiplication,2021.2.3,59.75384047
block3.xlsx,,,,,,,,,,,,,,0,2,2,2,,,,,2,0,2,0,,,,,,,,,,,,,,,,,,,,,,,,,,,,,,,,,,,,,,943.5635650220001,943.5635650220001,943.5635650220001,943.5635650220001,sub-06,12/03/2002,2: Female,08/09/2023,001,1: right,2023_Sep_08_1721,[FINAL]_fmri_multiplication,2021.2.3,59.75384047
block3.xlsx,,,,,,,,,,,,,,0,2,2,2,,,,,3,0,3,0,,,,,,,,,,,,,,,,,,,,,,,,,,,,,,,,,,,,,,944.5805069,None,944.5805069,None,sub-06,12/03/2002,2: Female,08/09/2023,001,1: right,2023_Sep_08_1721,[FINAL]_fmri_multiplication,2021.2.3,59.75384047
block3.xlsx,,,,,,,,,,,,,,0,2,2,2,,,,,4,0,4,0,,,,,,,,,,,,,,,,,,,,,,,,,,,,,,,,,,,,,,945.5792421599999,None,945.5792421599999,None,sub-06,12/03/2002,2: Female,08/09/2023,001,1: right,2023_Sep_08_1721,[FINAL]_fmri_multiplication,2021.2.3,59.75384047
block3.xlsx,,,,,,,,,,,,,,0,2,2,2,,,,,5,0,5,0,,,,,,,,,,,,,,,,,,,,,,,,,,,,,,,,,,,,,,946.5801805700003,None,946.5801805700003,None,sub-06,12/03/2002,2: Female,08/09/2023,001,1: right,2023_Sep_08_1721,[FINAL]_fmri_multiplication,2021.2.3,59.75384047
block3.xlsx,,,,,,,,,,,,,,0,2,2,2,,,,,6,0,6,0,,,,,,,,,,,,,,,,,,,,,,,,,,,,,,,,,,,,,,947.5806384070002,None,947.5806384070002,None,sub-06,12/03/2002,2: Female,08/09/2023,001,1: right,2023_Sep_08_1721,[FINAL]_fmri_multiplication,2021.2.3,59.75384047
block3.xlsx,,,,,,,,,,,,,,0,2,2,2,,,,,7,0,7,0,,,,,,,,,,,,,,,,,,,,,,,,,,,,,,,,,,,,,,948.5801700619995,None,948.5801700619995,None,sub-06,12/03/2002,2: Female,08/09/2023,001,1: right,2023_Sep_08_1721,[FINAL]_fmri_multiplication,2021.2.3,59.75384047
block3.xlsx,,,,,,,,,,,,,,0,2,2,2,,,,,8,0,8,0,,,,,,,,,,,,,,,,,,,,,,,,,,,,,,,,,,,,,,949.5796400070003,None,949.5796400070003,None,sub-06,12/03/2002,2: Female,08/09/2023,001,1: right,2023_Sep_08_1721,[FINAL]_fmri_multiplication,2021.2.3,59.75384047
block3.xlsx,,,,,,,,,,,,,,0,2,2,2,,,,,9,0,9,0,,,,,,,,,,,,,,,,,,,,,,,,,,,,,,,,,,,,,,950.5806593139996,None,950.5806593139996,None,sub-06,12/03/2002,2: Female,08/09/2023,001,1: right,2023_Sep_08_1721,[FINAL]_fmri_multiplication,2021.2.3,59.75384047
block3.xlsx,,,,,,,,,,,,,,0,2,2,2,,,,,10,0,10,0,,,,,,,,,,,,,,,,,,,,,,,,,,,,,,,,,,,,,,951.5647347739996,None,951.5647347739996,None,sub-06,12/03/2002,2: Female,08/09/2023,001,1: right,2023_Sep_08_1721,[FINAL]_fmri_multiplication,2021.2.3,59.75384047
block3.xlsx,,,,,,,,,,,,,,0,2,2,2,,,,,11,0,11,0,,,,,,,,,,,,,,,,,,,,,,,,,,,,,,,,,,,,,,952.5804008289997,None,952.5804008289997,None,sub-06,12/03/2002,2: Female,08/09/2023,001,1: right,2023_Sep_08_1721,[FINAL]_fmri_multiplication,2021.2.3,59.75384047
block3.xlsx,,,,,,,,,,,,,,0,2,2,2,,,,,12,0,12,0,,,,,,,,,,,,,,,,,,,,,,,,,,,,,,,,,,,,,,953.5798762909999,None,953.5798762909999,None,sub-06,12/03/2002,2: Female,08/09/2023,001,1: right,2023_Sep_08_1721,[FINAL]_fmri_multiplication,2021.2.3,59.75384047
block3.xlsx,,,,,,,,,,,,,,0,2,2,2,,,,,13,0,13,0,,,,,,,,,,,,,,,,,,,,,,,,,,,,,,,,,,,,,,954.5827536,None,954.5827536,None,sub-06,12/03/2002,2: Female,08/09/2023,001,1: right,2023_Sep_08_1721,[FINAL]_fmri_multiplication,2021.2.3,59.75384047
block3.xlsx,,,,,,,,,,,,,,0,2,2,2,,,,,14,0,14,0,,,,,,,,,,,,,,,,,,,,,,,,,,,,,,,,,,,,,,955.5807052270002,None,955.5807052270002,None,sub-06,12/03/2002,2: Female,08/09/2023,001,1: right,2023_Sep_08_1721,[FINAL]_fmri_multiplication,2021.2.3,59.75384047
block3.xlsx,,,,,,,,,,,,,,0,2,2,2,,,,,15,0,15,0,,,,,,,,,,,,,,,,,,,,,,,,,,,,,,,,,,,,,,956.5809215990002,None,956.5809215990002,None,sub-06,12/03/2002,2: Female,08/09/2023,001,1: right,2023_Sep_08_1721,[FINAL]_fmri_multiplication,2021.2.3,59.75384047
block3.xlsx,,,,,,,,,,,,,,0,2,2,2,,,,,16,0,16,0,,,,,,,,,,,,,,,,,,,,,,,,,,,,,,,,,,,,,,957.5804461729995,None,957.5804461729995,None,sub-06,12/03/2002,2: Female,08/09/2023,001,1: right,2023_Sep_08_1721,[FINAL]_fmri_multiplication,2021.2.3,59.75384047
block3.xlsx,,,,,,,,,,,,,,0,2,2,2,,,,,17,0,17,0,,,,,,,,,,,,,,,,,,,,,,,,,,,,,,,,,,,,,,958.5808122910003,None,958.5808122910003,None,sub-06,12/03/2002,2: Female,08/09/2023,001,1: right,2023_Sep_08_1721,[FINAL]_fmri_multiplication,2021.2.3,59.75384047
block3.xlsx,,,,,,,,,,,,,,0,2,2,2,,,,,18,0,18,0,,,,,,,,,,,,,,,,,,,,,,,,,,,,,,,,,,,,,,959.5808989930001,None,959.5808989930001,None,sub-06,12/03/2002,2: Female,08/09/2023,001,1: right,2023_Sep_08_1721,[FINAL]_fmri_multiplication,2021.2.3,59.75384047
block3.xlsx,,,,,,,,,,,,,,0,2,2,2,,,,,19,0,19,0,,,,,,,,,,,,,,,,,,,,,,,,,,,,,,,,,,,,,,960.5797732619994,None,960.5797732619994,None,sub-06,12/03/2002,2: Female,08/09/2023,001,1: right,2023_Sep_08_1721,[FINAL]_fmri_multiplication,2021.2.3,59.75384047
block3.xlsx,,,,,,,,,,,,,,0,2,2,2,,,,,20,0,20,0,,,,,,,,,,,,,,,,,,,,,,,,,,,,,,,,,,,,,,961.5795526849997,None,961.5795526849997,None,sub-06,12/03/2002,2: Female,08/09/2023,001,1: right,2023_Sep_08_1721,[FINAL]_fmri_multiplication,2021.2.3,59.75384047
block3.xlsx,,,,,,,,,,,,,,0,2,2,2,,,,,21,0,21,0,,,,,,,,,,,,,,,,,,,,,,,,,,,,,,,,,,,,,,962.5798838190003,None,962.5798838190003,None,sub-06,12/03/2002,2: Female,08/09/2023,001,1: right,2023_Sep_08_1721,[FINAL]_fmri_multiplication,2021.2.3,59.75384047
block3.xlsx,,,,,,,,,,,,,,0,2,2,2,,,,,22,0,22,0,,,,,,,,,,,,,,,,,,,,,,,,,,,,,,,,,,,,,,963.5795941599999,None,963.5795941599999,None,sub-06,12/03/2002,2: Female,08/09/2023,001,1: right,2023_Sep_08_1721,[FINAL]_fmri_multiplication,2021.2.3,59.75384047
block3.xlsx,,,,,,,,,,,,,,0,2,2,2,,,,,23,0,23,0,,,,,,,,,,,,,,,,,,,,,,,,,,,,,,,,,,,,,,964.5795939909995,None,964.5795939909995,None,sub-06,12/03/2002,2: Female,08/09/2023,001,1: right,2023_Sep_08_1721,[FINAL]_fmri_multiplication,2021.2.3,59.75384047
block3.xlsx,,,,,,,,,,,,,,0,2,2,2,,,,,24,0,24,0,,,,,,,,,,,,,,,,,,,,,,,,,,,,,,,,,,,,,,965.5797830849997,None,965.5797830849997,None,sub-06,12/03/2002,2: Female,08/09/2023,001,1: right,2023_Sep_08_1721,[FINAL]_fmri_multiplication,2021.2.3,59.75384047
block3.xlsx,,,,,,,,,,,,,,0,2,2,2,,,,,25,0,25,0,,,,,,,,,,,,,,,,,,,,,,,,,,,,,,,,,,,,,,966.5795000380003,None,966.5795000380003,None,sub-06,12/03/2002,2: Female,08/09/2023,001,1: right,2023_Sep_08_1721,[FINAL]_fmri_multiplication,2021.2.3,59.75384047
block3.xlsx,,,,,,,,,,,,,,0,2,2,2,,,,,26,0,26,0,,,,,,,,,,,,,,,,,,,,,,,,,,,,,,,,,,,,,,967.5800471080001,None,967.5800471080001,None,sub-06,12/03/2002,2: Female,08/09/2023,001,1: right,2023_Sep_08_1721,[FINAL]_fmri_multiplication,2021.2.3,59.75384047
block3.xlsx,,,,,,,,,,,,,,0,2,2,2,,,,,27,0,27,0,,,,,,,,,,,,,,,,,,,,,,,,,,,,,,,,,,,,,,968.5796325379997,None,968.5796325379997,None,sub-06,12/03/2002,2: Female,08/09/2023,001,1: right,2023_Sep_08_1721,[FINAL]_fmri_multiplication,2021.2.3,59.75384047
block3.xlsx,,,,,,,,,,,,,,0,2,2,2,,,,,28,0,28,0,,,,,,,,,,,,,,,,,,,,,,,,,,,,,,,,,,,,,,969.5797542939999,None,969.5797542939999,None,sub-06,12/03/2002,2: Female,08/09/2023,001,1: right,2023_Sep_08_1721,[FINAL]_fmri_multiplication,2021.2.3,59.75384047
block3.xlsx,,,,,,,,,,,,,,0,2,2,2,,,,,29,0,29,0,,,,,,,,,,,,,,,,,,,,,,,,,,,,,,,,,,,,,,970.5805911469997,None,970.5805911469997,None,sub-06,12/03/2002,2: Female,08/09/2023,001,1: right,2023_Sep_08_1721,[FINAL]_fmri_multiplication,2021.2.3,59.75384047
block3.xlsx,,,,,,,,,,,,,,0,2,2,2,,,,,,,,,,,,,,,,,,,,,,,,,,,,,,,,,,,,,,,,,,,,,,,,,,sub-06,12/03/2002,2: Female,08/09/2023,001,1: right,2023_Sep_08_1721,[FINAL]_fmri_multiplication,2021.2.3,59.75384047
block4.xlsx,10,7.5,8.4,5 x 6,36,14,5 x 6 = 36,large-sized_low-interference,large-sized,low-interference,6,IncorrectRESP,d,0,3,3,3,0,0,0,0,,,,,,,,,,,,,971.5805299419999,None,981.6005422959997,None,982.0793058609997,None,984.0796168899997,None,984.8299100859995,None,985.0811122,None,985.0811122,None,d,0,0.4310377299998436,985.0811122,None,985.5298811840003,None,985.5298811840003,None,d,0.13417664999997214,985.5298811840003,None,985.6967123510003,None,,,,,sub-06,12/03/2002,2: Female,08/09/2023,001,1: right,2023_Sep_08_1721,[FINAL]_fmri_multiplication,2021.2.3,59.75384047
block4.xlsx,25.9,7.5,2.6,6 x 2,12,6,6 x 2 = 12,small-sized_low-interference,small-sized,low-interference,3,CorrectRESP,a,0,3,3,3,0,1,1,1,,,,,,,,,,,,,,,994.0968876199995,None,994.5967169400001,None,996.5965775409995,None,997.3464868689998,None,997.5967655690001,None,997.5967655690001,None,a,0,0.46727140599978156,997.5967655690001,None,998.0962038400003,None,998.0962038400003,None,d,0.11184974600018904,998.0962038400003,None,998.2291928519999,None,,,,,sub-06,12/03/2002,2: Female,08/09/2023,001,1: right,2023_Sep_08_1721,[FINAL]_fmri_multiplication,2021.2.3,59.75384047
block4.xlsx,36,7.5,3.8,8 x 4,32,24,8 x 4 = 32,large-sized_high-interference,large-sized,high-interference,25,CorrectRESP,a,0,3,3,3,0,2,2,2,,,,,,,,,,,,,,,1000.8298748819998,None,1001.3297731590001,None,1003.3296278380003,None,1004.0797095239996,None,1004.3294287990002,None,1004.3294287990002,None,a,0,0.40668771999935416,1004.3294287990002,None,1004.7622715580001,None,1004.7622715580001,None,d,0.11779236199981824,1004.7622715580001,None,1004.9126223089997,None,,,,,sub-06,12/03/2002,2: Female,08/09/2023,001,1: right,2023_Sep_08_1721,[FINAL]_fmri_multiplication,2021.2.3,59.75384047
block4.xlsx,47.3,7.5,3.8,9 x 5,40,15,9 x 5 = 40,large-sized_low-interference,large-sized,low-interference,6,IncorrectRESP,d,0,3,3,3,0,3,3,3,,,,,,,,,,,,,,,1008.7129398739999,None,1009.213503,None,1011.2131474039998,None,1011.9631553009995,None,1012.2134153480001,None,1012.2134153480001,None,d,0,0.49072540099950857,1012.2134153480001,None,1012.7290653179998,None,1012.7290653179998,None,d,0.12699389299996255,1012.7290653179998,None,1012.8797020109996,None,,,,,sub-06,12/03/2002,2: Female,08/09/2023,001,1: right,2023_Sep_08_1721,[FINAL]_fmri_multiplication,2021.2.3,59.75384047
block4.xlsx,58.6,7.5,4.4,6 x 3,18,7,6 x 3 = 18,small-sized_high-interference,small-sized,high-interference,8,CorrectRESP,a,0,3,3,3,0,4,4,4,,,,,,,,,,,,,,,1016.67972,None,1017.179438,None,1019.1797662409999,None,1019.9297858250002,None,1020.1797373009995,None,1020.1797373009995,None,a,0,0.40442120599982445,1020.1797373009995,None,1020.6121194669995,None,1020.6121194669995,None,d,0.10792961700008163,1020.6121194669995,None,1020.7463464729999,None,,,,,sub-06,12/03/2002,2: Female,08/09/2023,001,1: right,2023_Sep_08_1721,[FINAL]_fmri_multiplication,2021.2.3,59.75384047
block4.xlsx,70.5,7.5,2.6,4 x 9,32,20,4 x 9 = 32,large-sized_high-interference,large-sized,high-interference,9,IncorrectRESP,d,0,3,3,3,0,5,5,5,,,,,,,,,,,,,,,1025.1598072529996,None,1025.664349,None,1027.663491,None,1028.4135747439996,None,1028.663427,None,1028.663427,None,d,0,0.44070023000040237,1028.663427,None,1029.1294124979995,None,1029.1294124979995,None,d,0.11068648000036774,1029.1294124979995,None,1029.26297,None,,,,,sub-06,12/03/2002,2: Female,08/09/2023,001,1: right,2023_Sep_08_1721,[FINAL]_fmri_multiplication,2021.2.3,59.75384047
block4.xlsx,80.6,7.5,9.4,3 x 4,15,9,3 x 4 = 15,small-sized_high-interference,small-sized,high-interference,10,IncorrectRESP,d,0,3,3,3,0,6,6,6,,,,,,,,,,,,,,,1031.8634697859998,None,1032.3628224040003,None,1034.3635948989995,None,1035.1129697369997,None,1035.3626597040002,None,1035.3626597040002,None,d,0,0.3894366920003449,1035.3626597040002,None,1035.7797092539995,None,1035.7797092539995,None,d,0.132430339,1035.7797092539995,None,1035.9291565570002,None,,,,,sub-06,12/03/2002,2: Female,08/09/2023,001,1: right,2023_Sep_08_1721,[FINAL]_fmri_multiplication,2021.2.3,59.75384047
block4.xlsx,97.5,7.5,6,6 x 6,36,13,6 x 6 = 36,large-sized_low-interference,large-sized,low-interference,4,CorrectRESP,a,0,3,3,3,0,7,7,7,,,,,,,,,,,,,,,1045.3297928209995,None,1045.8296057030002,None,1047.829772871999,None,1048.5796613900002,None,1048.8295584530006,None,1048.8295584530006,None,a,0,0.41846364,1048.8295584530006,None,1049.280123,None,1049.280123,None,d,0.11991542299983848,1049.280123,None,1049.4294124499993,None,,,,,sub-06,12/03/2002,2: Female,08/09/2023,001,1: right,2023_Sep_08_1721,[FINAL]_fmri_multiplication,2021.2.3,59.75384047
block4.xlsx,111,7.5,5.8,7 x 6,42,23,7 x 6 = 42,large-sized_high-interference,large-sized,high-interference,22,CorrectRESP,a,0,3,3,3,0,8,8,8,,,,,,,,,,,,,,,1055.4299033070001,None,1055.929948,None,1057.926486,None,1058.6682766409995,None,1058.9225595709995,None,1058.9225595709995,None,a,0,0.4135943219989713,1058.9225595709995,None,1059.3634322090002,None,1059.3634322090002,None,d,0.2926063830000203,1059.3634322090002,None,1059.6798260769992,None,,,,,sub-06,12/03/2002,2: Female,08/09/2023,001,1: right,2023_Sep_08_1721,[FINAL]_fmri_multiplication,2021.2.3,59.75384047
block4.xlsx,124.3,7.5,3.6,6 x 4,28,10,6 x 4 = 28,small-sized_high-interference,small-sized,high-interference,12,IncorrectRESP,d,0,3,3,3,0,9,9,9,,,,,,,,,,,,,,,1065.480162460999,None,1065.9797089759995,None,1067.97992,None,1068.7289859009998,None,1068.979544,None,1068.979544,None,d,0,0.46058880900091026,1068.979544,None,1069.4626271880006,None,1069.4626271880006,None,d,0.12943310700029542,1069.4626271880006,None,1069.6127463829998,None,,,,,sub-06,12/03/2002,2: Female,08/09/2023,001,1: right,2023_Sep_08_1721,[FINAL]_fmri_multiplication,2021.2.3,59.75384047
block4.xlsx,135.4,7.5,9.3,5 x 5,30,3,5 x 5 = 30,small-sized_low-interference,small-sized,low-interference,3,IncorrectRESP,d,0,3,3,3,0,10,10,10,,,,,,,,,,,,,,,1073.2131289579993,None,1073.7127602710007,None,1075.7131558399997,None,1076.4631368280006,None,1076.7131942800006,None,1076.7131942800006,None,d,0,0.4948513599993021,1076.7131942800006,None,1077.2292619050004,None,1077.2292619050004,None,d,0.12285039100061113,1077.2292619050004,None,1077.379825,None,,,,,sub-06,12/03/2002,2: Female,08/09/2023,001,1: right,2023_Sep_08_1721,[FINAL]_fmri_multiplication,2021.2.3,59.75384047
block4.xlsx,152.2,7.5,9.8,7 x 3,21,11,7 x 3 = 21,small-sized_high-interference,small-sized,high-interference,13,CorrectRESP,a,0,3,3,3,0,11,11,11,,,,,,,,,,,,,,,1086.6798921160007,None,1087.1786453219993,None,1089.1799044060008,None,1089.9295057599993,None,1090.1798269310002,None,1090.1798269310002,None,a,0,0.6443718020000233,1090.1798269310002,None,1090.8462480460003,None,1090.8462480460003,None,d,0.13786238900138414,1090.8462480460003,None,1091.0132716259996,None,,,,,sub-06,12/03/2002,2: Female,08/09/2023,001,1: right,2023_Sep_08_1721,[FINAL]_fmri_multiplication,2021.2.3,59.75384047
block4.xlsx,169.5,7.5,12.8,9 x 9,72,16,9 x 9 = 72,large-sized_low-interference,large-sized,low-interference,6,IncorrectRESP,d,0,3,3,3,0,12,12,12,,,,,,,,,,,,,,,1100.8134598979996,None,1101.3125517429999,None,1103.3132287499993,None,1104.0631538969992,None,1104.312866189999,None,1104.312866189999,None,d,0,0.44728791599845863,1104.312866189999,None,1104.7792530059996,None,1104.7792530059996,None,d,0.12489697900127794,1104.7792530059996,None,1104.929767,None,,,,,sub-06,12/03/2002,2: Female,08/09/2023,001,1: right,2023_Sep_08_1721,[FINAL]_fmri_multiplication,2021.2.3,59.75384047
block4.xlsx,189.8,7.5,8.9,4 x 4,20,4,4 x 4 = 20,small-sized_low-interference,small-sized,low-interference,5,IncorrectRESP,d,0,3,3,3,0,13,13,13,,,,,,,,,,,,,,,1117.7291352659995,None,1118.2295612409998,None,1120.2297476559997,None,1120.9797819659998,None,1121.2302024950004,None,1121.2302024950004,None,d,0,0.4898585009996168,1121.2302024950004,None,1121.745844486999,None,1121.745844486999,None,d,0.11821726700145518,1121.745844486999,None,1121.8964260989997,None,,,,,sub-06,12/03/2002,2: Female,08/09/2023,001,1: right,2023_Sep_08_1721,[FINAL]_fmri_multiplication,2021.2.3,59.75384047
block4.xlsx,206.2,7.5,2.4,5 x 8,45,21,5 x 8 = 45,large-sized_high-interference,large-sized,high-interference,9,IncorrectRESP,d,0,3,3,3,0,14,14,14,,,,,,,,,,,,,,,1130.793073593999,None,1131.2879236450008,None,1133.2968964020001,None,1134.0468026470007,None,1134.2972147990004,None,1134.2972147990004,None,d,0,0.4308755079982802,1134.2972147990004,None,1134.746114,None,1134.746114,None,d,0.1340518279994285,1134.746114,None,1134.896258,None,,,,,sub-06,12/03/2002,2: Female,08/09/2023,001,1: right,2023_Sep_08_1721,[FINAL]_fmri_multiplication,2021.2.3,59.75384047
block4.xlsx,216.1,7.5,14,8 x 2,16,5,8 x 2 = 16,small-sized_low-interference,small-sized,low-interference,7,CorrectRESP,a,0,3,3,3,0,15,15,15,,,,,,,,,,,,,,,1137.2971945810004,None,1137.7957078670006,None,1139.7965626040004,None,1140.5465297270002,None,1140.7963180860006,None,1140.7963180860006,None,a,0,0.4677079720004258,1140.7963180860006,None,1141.2964184339999,None,1141.2964184339999,None,d,0.1515939540004183,1141.2964184339999,None,1141.479154,None,,,,,sub-06,12/03/2002,2: Female,08/09/2023,001,1: right,2023_Sep_08_1721,[FINAL]_fmri_multiplication,2021.2.3,59.75384047
block4.xlsx,237.6,7.5,5.2,7 x 5,35,17,7 x 5 = 35,large-sized_low-interference,large-sized,low-interference,7,CorrectRESP,a,0,3,3,3,0,16,16,16,,,,,,,,,,,,,,,1155.4797908879991,None,1155.9798004900003,None,1157.979829,None,1158.7298678999996,None,1158.981331,None,1158.981331,None,a,0,0.41870350199860695,1158.981331,None,1159.429404,None,1159.429404,None,d,0.12274783599968941,1159.429404,None,1159.5799798440003,None,,,,,sub-06,12/03/2002,2: Female,08/09/2023,001,1: right,2023_Sep_08_1721,[FINAL]_fmri_multiplication,2021.2.3,59.75384047
block4.xlsx,250.3,7.5,9.6,8 x 7,63,22,8 x 7 = 63,large-sized_high-interference,large-sized,high-interference,9,IncorrectRESP,d,0,3,3,3,0,17,17,17,,,,,,,,,,,,,,,1164.7776747509997,None,1165.2929500320006,None,1167.2969145869993,None,1168.0467764339992,None,1168.2968099589998,None,1168.2968099589998,None,d,0,0.39943675700124004,1168.2968099589998,None,1168.7135508890005,None,1168.7135508890005,None,d,0.1184922459997324,1168.7135508890005,None,1168.8635781489993,None,,,,,sub-06,12/03/2002,2: Female,08/09/2023,001,1: right,2023_Sep_08_1721,[FINAL]_fmri_multiplication,2021.2.3,59.75384047
block4.xlsx,267.4,7.5,2.6,2 x 9,16,2,2 x 9 = 16,small-sized_low-interference,small-sized,low-interference,7,IncorrectRESP,d,0,3,3,3,0,18,18,18,,,,,,,,,,,,,,,1178.478406,None,1178.9795742080005,None,1180.9798412380005,None,1181.729908625999,None,1181.9795652480007,None,1181.9795652480007,None,d,0,0.39657892899958824,1181.9795652480007,None,1182.3959824760004,None,1182.3959824760004,None,d,0.092036603,1182.3959824760004,None,1182.5128319689993,None,,,,,sub-06,12/03/2002,2: Female,08/09/2023,001,1: right,2023_Sep_08_1721,[FINAL]_fmri_multiplication,2021.2.3,59.75384047
block4.xlsx,277.5,7.5,2.3,9 x 3,27,19,9 x 3 = 27,large-sized_high-interference,large-sized,high-interference,9,CorrectRESP,a,0,3,3,3,0,19,19,19,,,,,,,,,,,,,,,1185.1131142100003,None,1185.6129268469995,None,1187.6126983720005,None,1188.3631118850008,None,1188.6133477170006,None,1188.6133477170006,None,a,0,0.4828113060011674,1188.6133477170006,None,1189.1133166550007,None,1189.1133166550007,None,d,0.11073350900005607,1189.1133166550007,None,1189.2459937090007,None,,,,,sub-06,12/03/2002,2: Female,08/09/2023,001,1: right,2023_Sep_08_1721,[FINAL]_fmri_multiplication,2021.2.3,59.75384047
block4.xlsx,287.3,7.5,3.1,4 x 5,16,8,4 x 5 = 16,small-sized_high-interference,small-sized,high-interference,8,IncorrectRESP,d,0,3,3,3,0,20,20,20,,,,,,,,,,,,,,,1191.5460295390003,None,1192.0466732309997,None,1194.0465956890002,None,1194.796594,None,1195.046831,None,1195.046831,None,d,0,0.465284056,1195.046831,None,1195.5295085010002,None,1195.5295085010002,None,d,0.13455152599999565,1195.5295085010002,None,1195.6964647339992,None,,,,,sub-06,12/03/2002,2: Female,08/09/2023,001,1: right,2023_Sep_08_1721,[FINAL]_fmri_multiplication,2021.2.3,59.75384047
block4.xlsx,297.9,7.5,2.7,7 x 7,49,18,7 x 7 = 49,large-sized_low-interference,large-sized,low-interference,7,CorrectRESP,a,0,3,3,3,0,21,21,21,,,,,,,,,,,,,,,1198.7933116660006,None,1199.2877341559997,None,1201.2848441570004,None,1202.025671420999,None,1202.272064110999,None,1202.272064110999,None,a,0,0.4079931510004826,1202.272064110999,None,1202.6969926500005,None,1202.6969926500005,None,d,0.11107231399910233,1202.6969926500005,None,1202.8297199659992,None,,,,,sub-06,12/03/2002,2: Female,08/09/2023,001,1: right,2023_Sep_08_1721,[FINAL]_fmri_multiplication,2021.2.3,59.75384047
block4.xlsx,308.1,7.5,4.8,7 x 2,14,1,7 x 2 = 14,small-sized_low-interference,small-sized,low-interference,4,CorrectRESP,a,0,3,3,3,0,22,22,22,,,,,,,,,,,,,,,1205.5300945830004,None,1206.0291023480004,None,1208.0298253090004,None,1208.7799438790007,None,1209.02925,None,1209.02925,None,a,0,0.45069877700007055,1209.02925,None,1209.5129502359996,None,1209.5129502359996,None,d,0.095113727,1209.5129502359996,None,1209.6295378260002,None,,,,,sub-06,12/03/2002,2: Female,08/09/2023,001,1: right,2023_Sep_08_1721,[FINAL]_fmri_multiplication,2021.2.3,59.75384047
block4.xlsx,320.4,7.5,7.1,3 x 8,24,12,3 x 8 = 24,small-sized_high-interference,small-sized,high-interference,13,CorrectRESP,a,0,3,3,3,0,23,23,23,,,,,,,,,,,,,,,1214.4292369840005,None,1214.929744646999,None,1216.929501,None,1217.6799750890004,None,1217.9297983670003,None,1217.9297983670003,None,a,0,0.3502598159993795,1217.9297983670003,None,1218.313085,None,1218.313085,None,d,0.11106574200130126,1218.313085,None,1218.446522103999,None,,,,,sub-06,12/03/2002,2: Female,08/09/2023,001,1: right,2023_Sep_08_1721,[FINAL]_fmri_multiplication,2021.2.3,59.75384047
block4.xlsx,,,,,,,,,,,,,,0,3,3,3,,,,,0,0,0,0,,,,,,,,,,,,,,,,,,,,,,,,,,,,,,,,,,,,,,1225.546534949999,None,1225.546534949999,None,sub-06,12/03/2002,2: Female,08/09/2023,001,1: right,2023_Sep_08_1721,[FINAL]_fmri_multiplication,2021.2.3,59.75384047
block4.xlsx,,,,,,,,,,,,,,0,3,3,3,,,,,1,0,1,0,,,,,,,,,,,,,,,,,,,,,,,,,,,,,,,,,,,,,,1226.5476394979996,1226.5476394979996,1226.5476394979996,1226.5476394979996,sub-06,12/03/2002,2: Female,08/09/2023,001,1: right,2023_Sep_08_1721,[FINAL]_fmri_multiplication,2021.2.3,59.75384047
block4.xlsx,,,,,,,,,,,,,,0,3,3,3,,,,,2,0,2,0,,,,,,,,,,,,,,,,,,,,,,,,,,,,,,,,,,,,,,1227.5633198960004,None,1227.5633198960004,None,sub-06,12/03/2002,2: Female,08/09/2023,001,1: right,2023_Sep_08_1721,[FINAL]_fmri_multiplication,2021.2.3,59.75384047
block4.xlsx,,,,,,,,,,,,,,0,3,3,3,,,,,3,0,3,0,,,,,,,,,,,,,,,,,,,,,,,,,,,,,,,,,,,,,,1228.5632316810006,None,1228.5632316810006,None,sub-06,12/03/2002,2: Female,08/09/2023,001,1: right,2023_Sep_08_1721,[FINAL]_fmri_multiplication,2021.2.3,59.75384047
block4.xlsx,,,,,,,,,,,,,,0,3,3,3,,,,,4,0,4,0,,,,,,,,,,,,,,,,,,,,,,,,,,,,,,,,,,,,,,1229.5646816930002,None,1229.5646816930002,None,sub-06,12/03/2002,2: Female,08/09/2023,001,1: right,2023_Sep_08_1721,[FINAL]_fmri_multiplication,2021.2.3,59.75384047
block4.xlsx,,,,,,,,,,,,,,0,3,3,3,,,,,5,0,5,0,,,,,,,,,,,,,,,,,,,,,,,,,,,,,,,,,,,,,,1230.5638180280002,None,1230.5638180280002,None,sub-06,12/03/2002,2: Female,08/09/2023,001,1: right,2023_Sep_08_1721,[FINAL]_fmri_multiplication,2021.2.3,59.75384047
block4.xlsx,,,,,,,,,,,,,,0,3,3,3,,,,,6,0,6,0,,,,,,,,,,,,,,,,,,,,,,,,,,,,,,,,,,,,,,1231.563291,None,1231.563291,None,sub-06,12/03/2002,2: Female,08/09/2023,001,1: right,2023_Sep_08_1721,[FINAL]_fmri_multiplication,2021.2.3,59.75384047
block4.xlsx,,,,,,,,,,,,,,0,3,3,3,,,,,7,0,7,0,,,,,,,,,,,,,,,,,,,,,,,,,,,,,,,,,,,,,,1232.5494306050005,None,1232.5494306050005,None,sub-06,12/03/2002,2: Female,08/09/2023,001,1: right,2023_Sep_08_1721,[FINAL]_fmri_multiplication,2021.2.3,59.75384047
block4.xlsx,,,,,,,,,,,,,,0,3,3,3,,,,,8,0,8,0,,,,,,,,,,,,,,,,,,,,,,,,,,,,,,,,,,,,,,1233.5647619209994,None,1233.5647619209994,None,sub-06,12/03/2002,2: Female,08/09/2023,001,1: right,2023_Sep_08_1721,[FINAL]_fmri_multiplication,2021.2.3,59.75384047
block4.xlsx,,,,,,,,,,,,,,0,3,3,3,,,,,9,0,9,0,,,,,,,,,,,,,,,,,,,,,,,,,,,,,,,,,,,,,,1234.5644025210004,None,1234.5644025210004,None,sub-06,12/03/2002,2: Female,08/09/2023,001,1: right,2023_Sep_08_1721,[FINAL]_fmri_multiplication,2021.2.3,59.75384047
block4.xlsx,,,,,,,,,,,,,,0,3,3,3,,,,,10,0,10,0,,,,,,,,,,,,,,,,,,,,,,,,,,,,,,,,,,,,,,1235.564080406999,None,1235.564080406999,None,sub-06,12/03/2002,2: Female,08/09/2023,001,1: right,2023_Sep_08_1721,[FINAL]_fmri_multiplication,2021.2.3,59.75384047
block4.xlsx,,,,,,,,,,,,,,0,3,3,3,,,,,11,0,11,0,,,,,,,,,,,,,,,,,,,,,,,,,,,,,,,,,,,,,,1236.5634913449994,None,1236.5634913449994,None,sub-06,12/03/2002,2: Female,08/09/2023,001,1: right,2023_Sep_08_1721,[FINAL]_fmri_multiplication,2021.2.3,59.75384047
block4.xlsx,,,,,,,,,,,,,,0,3,3,3,,,,,12,0,12,0,,,,,,,,,,,,,,,,,,,,,,,,,,,,,,,,,,,,,,1237.5633550000002,None,1237.5633550000002,None,sub-06,12/03/2002,2: Female,08/09/2023,001,1: right,2023_Sep_08_1721,[FINAL]_fmri_multiplication,2021.2.3,59.75384047
block4.xlsx,,,,,,,,,,,,,,0,3,3,3,,,,,13,0,13,0,,,,,,,,,,,,,,,,,,,,,,,,,,,,,,,,,,,,,,1238.5637172349998,None,1238.5637172349998,None,sub-06,12/03/2002,2: Female,08/09/2023,001,1: right,2023_Sep_08_1721,[FINAL]_fmri_multiplication,2021.2.3,59.75384047
block4.xlsx,,,,,,,,,,,,,,0,3,3,3,,,,,14,0,14,0,,,,,,,,,,,,,,,,,,,,,,,,,,,,,,,,,,,,,,1239.5635231899996,None,1239.5635231899996,None,sub-06,12/03/2002,2: Female,08/09/2023,001,1: right,2023_Sep_08_1721,[FINAL]_fmri_multiplication,2021.2.3,59.75384047
block4.xlsx,,,,,,,,,,,,,,0,3,3,3,,,,,15,0,15,0,,,,,,,,,,,,,,,,,,,,,,,,,,,,,,,,,,,,,,1240.5631542169995,None,1240.5631542169995,None,sub-06,12/03/2002,2: Female,08/09/2023,001,1: right,2023_Sep_08_1721,[FINAL]_fmri_multiplication,2021.2.3,59.75384047
block4.xlsx,,,,,,,,,,,,,,0,3,3,3,,,,,16,0,16,0,,,,,,,,,,,,,,,,,,,,,,,,,,,,,,,,,,,,,,1241.5631746380004,None,1241.5631746380004,None,sub-06,12/03/2002,2: Female,08/09/2023,001,1: right,2023_Sep_08_1721,[FINAL]_fmri_multiplication,2021.2.3,59.75384047
block4.xlsx,,,,,,,,,,,,,,0,3,3,3,,,,,17,0,17,0,,,,,,,,,,,,,,,,,,,,,,,,,,,,,,,,,,,,,,1242.5640561269993,None,1242.5640561269993,None,sub-06,12/03/2002,2: Female,08/09/2023,001,1: right,2023_Sep_08_1721,[FINAL]_fmri_multiplication,2021.2.3,59.75384047
block4.xlsx,,,,,,,,,,,,,,0,3,3,3,,,,,18,0,18,0,,,,,,,,,,,,,,,,,,,,,,,,,,,,,,,,,,,,,,1243.5637623769999,None,1243.5637623769999,None,sub-06,12/03/2002,2: Female,08/09/2023,001,1: right,2023_Sep_08_1721,[FINAL]_fmri_multiplication,2021.2.3,59.75384047
block4.xlsx,,,,,,,,,,,,,,0,3,3,3,,,,,19,0,19,0,,,,,,,,,,,,,,,,,,,,,,,,,,,,,,,,,,,,,,1244.5630021809993,None,1244.5630021809993,None,sub-06,12/03/2002,2: Female,08/09/2023,001,1: right,2023_Sep_08_1721,[FINAL]_fmri_multiplication,2021.2.3,59.75384047
block4.xlsx,,,,,,,,,,,,,,0,3,3,3,,,,,20,0,20,0,,,,,,,,,,,,,,,,,,,,,,,,,,,,,,,,,,,,,,1245.563215226999,None,1245.563215226999,None,sub-06,12/03/2002,2: Female,08/09/2023,001,1: right,2023_Sep_08_1721,[FINAL]_fmri_multiplication,2021.2.3,59.75384047
block4.xlsx,,,,,,,,,,,,,,0,3,3,3,,,,,21,0,21,0,,,,,,,,,,,,,,,,,,,,,,,,,,,,,,,,,,,,,,1246.5632877030002,None,1246.5632877030002,None,sub-06,12/03/2002,2: Female,08/09/2023,001,1: right,2023_Sep_08_1721,[FINAL]_fmri_multiplication,2021.2.3,59.75384047
block4.xlsx,,,,,,,,,,,,,,0,3,3,3,,,,,22,0,22,0,,,,,,,,,,,,,,,,,,,,,,,,,,,,,,,,,,,,,,1247.563497,None,1247.563497,None,sub-06,12/03/2002,2: Female,08/09/2023,001,1: right,2023_Sep_08_1721,[FINAL]_fmri_multiplication,2021.2.3,59.75384047
block4.xlsx,,,,,,,,,,,,,,0,3,3,3,,,,,23,0,23,0,,,,,,,,,,,,,,,,,,,,,,,,,,,,,,,,,,,,,,1248.5633886619999,None,1248.5633886619999,None,sub-06,12/03/2002,2: Female,08/09/2023,001,1: right,2023_Sep_08_1721,[FINAL]_fmri_multiplication,2021.2.3,59.75384047
block4.xlsx,,,,,,,,,,,,,,0,3,3,3,,,,,24,0,24,0,,,,,,,,,,,,,,,,,,,,,,,,,,,,,,,,,,,,,,1249.5629315589995,None,1249.5629315589995,None,sub-06,12/03/2002,2: Female,08/09/2023,001,1: right,2023_Sep_08_1721,[FINAL]_fmri_multiplication,2021.2.3,59.75384047
block4.xlsx,,,,,,,,,,,,,,0,3,3,3,,,,,25,0,25,0,,,,,,,,,,,,,,,,,,,,,,,,,,,,,,,,,,,,,,1250.5636452060007,None,1250.5636452060007,None,sub-06,12/03/2002,2: Female,08/09/2023,001,1: right,2023_Sep_08_1721,[FINAL]_fmri_multiplication,2021.2.3,59.75384047
block4.xlsx,,,,,,,,,,,,,,0,3,3,3,,,,,26,0,26,0,,,,,,,,,,,,,,,,,,,,,,,,,,,,,,,,,,,,,,1251.5630057359995,None,1251.5630057359995,None,sub-06,12/03/2002,2: Female,08/09/2023,001,1: right,2023_Sep_08_1721,[FINAL]_fmri_multiplication,2021.2.3,59.75384047
block4.xlsx,,,,,,,,,,,,,,0,3,3,3,,,,,27,0,27,0,,,,,,,,,,,,,,,,,,,,,,,,,,,,,,,,,,,,,,1252.5625340980005,None,1252.5625340980005,None,sub-06,12/03/2002,2: Female,08/09/2023,001,1: right,2023_Sep_08_1721,[FINAL]_fmri_multiplication,2021.2.3,59.75384047
block4.xlsx,,,,,,,,,,,,,,0,3,3,3,,,,,28,0,28,0,,,,,,,,,,,,,,,,,,,,,,,,,,,,,,,,,,,,,,1253.5636265760004,None,1253.5636265760004,None,sub-06,12/03/2002,2: Female,08/09/2023,001,1: right,2023_Sep_08_1721,[FINAL]_fmri_multiplication,2021.2.3,59.75384047
block4.xlsx,,,,,,,,,,,,,,0,3,3,3,,,,,29,0,29,0,,,,,,,,,,,,,,,,,,,,,,,,,,,,,,,,,,,,,,1254.562663,None,1254.562663,None,sub-06,12/03/2002,2: Female,08/09/2023,001,1: right,2023_Sep_08_1721,[FINAL]_fmri_multiplication,2021.2.3,59.75384047
block4.xlsx,,,,,,,,,,,,,,0,3,3,3,,,,,,,,,,,,,,,,,,,,,,,,,,,,,,,,,,,,,,,,,,,,,,,,,,sub-06,12/03/2002,2: Female,08/09/2023,001,1: right,2023_Sep_08_1721,[FINAL]_fmri_multiplication,2021.2.3,59.75384047