blocks_file,start,dur,rest,mult_problemB,mult_options,stim_trial,mult_stim,type,ProblemSize,InterferenceLH,InterferenceLevel,mult_type,corrRESP,blocks_set.thisRepN,blocks_set.thisTrialN,blocks_set.thisN,blocks_set.thisIndex,TRIALS.thisRepN,TRIALS.thisTrialN,TRIALS.thisN,TRIALS.thisIndex,timer_loop.thisRepN,timer_loop.thisTrialN,timer_loop.thisN,timer_loop.thisIndex,WAIT_TEXT.started,WAIT_TEXT.stopped,scan_start_trigger.keys,scan_start_trigger.rt,scan_start_trigger.started,scan_start_trigger.stopped,MAIN_SCREEN.started,MAIN_SCREEN.stopped,Block_Text.started,Block_Text.stopped,asterisk500ms.started,asterisk500ms.stopped,mult_question_text.started,mult_question_text.stopped,equal_text.started,equal_text.stopped,blank250_text.started,blank250_text.stopped,Mult_OPTION.started,Mult_OPTION.stopped,Mult_YN.started,Mult_YN.stopped,Mult_Resp.keys,Mult_Resp.corr,Mult_Resp.rt,Mult_Resp.started,Mult_Resp.stopped,Strategy_Q.started,Strategy_Q.stopped,Strategy_Option.started,Strategy_Option.stopped,Strategy_RESP.keys,Strategy_RESP.rt,Strategy_RESP.started,Strategy_RESP.stopped,jitters.started,jitters.stopped,resting_text.started,resting_text.stopped,countdown_timer.started,countdown_timer.stopped,End_Text.started,End_Text.stopped,fixation.started,fixation.stopped,fixation_end.keys,fixation_end.rt,fixation_end.started,fixation_end.stopped,participant,Date of birth (DD/MM/YEAR),gender,Testing Date (DD/MM/YEAR),session,handedness,date,expName,psychopyVersion,frameRate
,,,,,,,,,,,,,,,,,,,,,,,,,,33.55302408999887,None,s,36.15873280099913,33.55302408999887,None,,,,,,,,,,,,,,,,,,,,,,,,,,,,,,,,,,,,,,,,,,,,sub-10,08/08/2001,1: Male,21/10/2023,001,1: right,2023_Oct_21_0951,[FINAL]_fmri_multiplication,2021.2.3,59.93942701311696
block1.xlsx,10,7.5,15.3,6 x 6,36,13,6 x 6 = 36,large-sized_low-interference,large-sized,low-interference,4,CorrectRESP,a,0,0,0,0,0,0,0,0,,,,,,,,,,,69.74178097000004,None,74.76229625699852,None,84.78243446200031,None,85.24353602,None,87.24203868199947,None,87.99204418599948,None,88.24334882099902,None,88.24334882099902,None,d,0,0.7502708960000746,88.24334882099902,None,89.02438679,None,89.02438679,None,d,0.5052925950003555,89.02438679,None,89.55860596,None,,,,,,,,,,,,,sub-10,08/08/2001,1: Male,21/10/2023,001,1: right,2023_Oct_21_0951,[FINAL]_fmri_multiplication,2021.2.3,59.93942701311696
block1.xlsx,32.8,7.5,2.5,2 x 9,18,2,2 x 9 = 18,small-sized_low-interference,small-sized,low-interference,7,CorrectRESP,a,0,0,0,0,0,1,1,1,,,,,,,,,,,,,,,104.85821084999952,None,105.36073914699955,None,107.37454299699857,None,108.12503575200026,None,108.37600277399906,None,108.37600277399906,None,d,0,0.577676352,108.37600277399906,None,108.97455502999946,None,108.97455502999946,None,d,0.21114582999871345,108.97455502999946,None,109.20785637199879,None,,,,,,,,,,,,,sub-10,08/08/2001,1: Male,21/10/2023,001,1: right,2023_Oct_21_0951,[FINAL]_fmri_multiplication,2021.2.3,59.93942701311696
block1.xlsx,42.8,7.5,3.8,8 x 4,28,24,8 x 4 = 28,large-sized_high-interference,large-sized,high-interference,25,IncorrectRESP,d,0,0,0,0,0,2,2,2,,,,,,,,,,,,,,,111.70826786199905,None,112.20971522199943,None,114.22511413999928,None,114.97486233899872,None,115.22633760600002,None,115.22633760600002,None,a,0,0.8152758670003095,115.22633760600002,None,116.05862319900007,None,116.05862319900007,None,d,0.6151114140011487,116.05862319900007,None,116.68905828899915,None,,,,,,,,,,,,,sub-10,08/08/2001,1: Male,21/10/2023,001,1: right,2023_Oct_21_0951,[FINAL]_fmri_multiplication,2021.2.3,59.93942701311696
block1.xlsx,54.1,7.5,5.5,7 x 2,14,1,7 x 2 = 14,small-sized_low-interference,small-sized,low-interference,4,CorrectRESP,a,0,0,0,0,0,3,3,3,,,,,,,,,,,,,,,120.48121636999895,None,120.98533261800003,None,122.9920408830003,None,123.74192305499855,None,123.99166124099975,None,123.99166124099975,None,d,0,0.6019992990004539,123.99166124099975,None,124.6234362999985,None,124.6234362999985,None,d,0.2422038929998962,124.6234362999985,None,124.89173124199988,None,,,,,,,,,,,,,sub-10,08/08/2001,1: Male,21/10/2023,001,1: right,2023_Oct_21_0951,[FINAL]_fmri_multiplication,2021.2.3,59.93942701311696
block1.xlsx,67.1,7.5,3,7 x 7,56,18,7 x 7 = 56,large-sized_low-interference,large-sized,low-interference,7,IncorrectRESP,d,0,0,0,0,0,4,4,4,,,,,,,,,,,,,,,130.39208718199916,None,130.89002028199866,None,132.89164495799923,None,133.64162117199885,None,133.8925060040001,None,133.8925060040001,None,a,0,0.8133124700016197,133.8925060040001,None,134.72451442700003,None,134.72451442700003,None,d,0.41310380499999155,134.72451442700003,None,135.15786192199994,None,,,,,,,,,,,,,sub-10,08/08/2001,1: Male,21/10/2023,001,1: right,2023_Oct_21_0951,[FINAL]_fmri_multiplication,2021.2.3,59.93942701311696
block1.xlsx,77.6,7.5,2.1,3 x 4,12,9,3 x 4 = 12,small-sized_high-interference,small-sized,high-interference,10,CorrectRESP,a,0,0,0,0,0,5,5,5,,,,,,,,,,,,,,,138.15821174899975,None,138.67490105700017,None,140.67455484099992,None,141.42506832300023,None,141.67344926499936,None,141.67344926499936,None,d,0,0.5842738009996538,141.67344926499936,None,142.27449074200013,None,142.27449074200013,None,d,0.21529966500020237,142.27449074200013,None,142.50784342099905,None,,,,,,,,,,,,,sub-10,08/08/2001,1: Male,21/10/2023,001,1: right,2023_Oct_21_0951,[FINAL]_fmri_multiplication,2021.2.3,59.93942701311696
block1.xlsx,87.2,7.5,5,8 x 7,63,22,8 x 7 = 63,large-sized_high-interference,large-sized,high-interference,9,IncorrectRESP,d,0,0,0,0,0,6,6,6,,,,,,,,,,,,,,,144.6078120789989,None,145.10937506299888,None,147.12506065100024,None,147.87503829100024,None,148.12525865299904,None,148.12525865299904,None,a,0,0.8283838080005808,148.12525865299904,None,148.9747092359994,None,148.9747092359994,None,d,0.25090556999930413,148.9747092359994,None,149.25845354800003,None,,,,,,,,,,,,,sub-10,08/08/2001,1: Male,21/10/2023,001,1: right,2023_Oct_21_0951,[FINAL]_fmri_multiplication,2021.2.3,59.93942701311696
block1.xlsx,99.7,7.5,3,5 x 5,25,3,5 x 5 = 25,small-sized_low-interference,small-sized,low-interference,3,CorrectRESP,a,0,0,0,0,0,7,7,7,,,,,,,,,,,,,,,154.25840219199927,None,154.75757616599913,None,156.7585820989989,None,157.5085423849996,None,157.75878679199923,None,157.75878679199923,None,d,0,0.5948720969990973,157.75878679199923,None,158.37402960500003,None,158.37402960500003,None,d,0.21961448200090672,158.37402960500003,None,158.6255363399996,None,,,,,,,,,,,,,sub-10,08/08/2001,1: Male,21/10/2023,001,1: right,2023_Oct_21_0951,[FINAL]_fmri_multiplication,2021.2.3,59.93942701311696
block1.xlsx,110.2,7.5,6.5,6 x 4,28,10,6 x 4 = 28,small-sized_high-interference,small-sized,high-interference,12,IncorrectRESP,d,0,0,0,0,0,8,8,8,,,,,,,,,,,,,,,161.6251715039998,None,162.12459786899853,None,164.12483262800015,None,164.87453960699895,None,165.12436706100016,None,165.12436706100016,None,a,0,0.7653689800008578,165.12436706100016,None,165.90685251899959,None,165.90685251899959,None,d,0.28673455599891895,165.90685251899959,None,166.2252245,None,,,,,,,,,,,,,sub-10,08/08/2001,1: Male,21/10/2023,001,1: right,2023_Oct_21_0951,[FINAL]_fmri_multiplication,2021.2.3,59.93942701311696
block1.xlsx,124.2,7.5,5.7,5 x 8,40,21,5 x 8 = 40,large-sized_high-interference,large-sized,high-interference,9,CorrectRESP,a,0,0,0,0,0,9,9,9,,,,,,,,,,,,,,,172.72516935599924,None,173.2248703309997,None,175.2250656039996,None,175.97494951599947,None,176.22701097800018,None,176.22701097800018,None,d,0,0.6307262999998784,176.22701097800018,None,176.87396150099994,None,176.87396150099994,None,d,0.19977065100101754,176.87396150099994,None,177.09116258599897,None,,,,,,,,,,,,,sub-10,08/08/2001,1: Male,21/10/2023,001,1: right,2023_Oct_21_0951,[FINAL]_fmri_multiplication,2021.2.3,59.93942701311696
block1.xlsx,137.4,7.5,11.2,7 x 3,24,11,7 x 3 = 24,small-sized_high-interference,small-sized,high-interference,13,IncorrectRESP,d,0,0,0,0,0,10,10,10,,,,,,,,,,,,,,,182.79170395999972,None,183.28932513699874,None,185.29158937299871,None,186.04172112699962,None,186.2917826289995,None,186.2917826289995,None,a,0,0.7819040389986185,186.2917826289995,None,187.09146993299873,None,187.09146993299873,None,d,0.2862174879992381,187.09146993299873,None,187.3982491429997,None,,,,,,,,,,,,,sub-10,08/08/2001,1: Male,21/10/2023,001,1: right,2023_Oct_21_0951,[FINAL]_fmri_multiplication,2021.2.3,59.93942701311696
block1.xlsx,156.1,7.5,6.9,5 x 6,30,14,5 x 6 = 30,large-sized_low-interference,large-sized,low-interference,6,CorrectRESP,a,0,0,0,0,0,11,11,11,,,,,,,,,,,,,,,198.6082459879999,None,199.10816793499907,None,201.1085122509994,None,201.8583070429995,None,202.10798795299888,None,202.10798795299888,None,d,0,0.7016338829998858,202.10798795299888,None,202.84046884599957,None,202.84046884599957,None,d,0.19317046499963908,202.84046884599957,None,203.0585281679996,None,,,,,,,,,,,,,sub-10,08/08/2001,1: Male,21/10/2023,001,1: right,2023_Oct_21_0951,[FINAL]_fmri_multiplication,2021.2.3,59.93942701311696
block1.xlsx,170.5,7.5,2.4,6 x 2,10,6,6 x 2 = 10,small-sized_low-interference,small-sized,low-interference,3,IncorrectRESP,d,0,0,0,0,0,12,12,12,,,,,,,,,,,,,,,209.95828610999888,None,210.45816677699986,None,212.45782947099906,None,213.20786193499953,None,213.45879502999924,None,213.45879502999924,None,a,0,0.5668465849994391,213.45879502999924,None,214.05817998699968,None,214.05817998699968,None,d,0.23155632099951617,214.05817998699968,None,214.30789484999877,None,,,,,,,,,,,,,sub-10,08/08/2001,1: Male,21/10/2023,001,1: right,2023_Oct_21_0951,[FINAL]_fmri_multiplication,2021.2.3,59.93942701311696
block1.xlsx,180.4,7.5,4.6,4 x 9,36,20,4 x 9 = 36,large-sized_high-interference,large-sized,high-interference,9,CorrectRESP,a,0,0,0,0,0,13,13,13,,,,,,,,,,,,,,,216.70813098100007,None,217.2079269599999,None,219.20846468199852,None,219.9583830419997,None,220.20944383200003,None,220.20944383200003,None,d,0,0.5521685439998691,220.20944383200003,None,220.79038056699937,None,220.79038056699937,None,d,0.1793270419984765,220.79038056699937,None,220.9914407489996,None,,,,,,,,,,,,,sub-10,08/08/2001,1: Male,21/10/2023,001,1: right,2023_Oct_21_0951,[FINAL]_fmri_multiplication,2021.2.3,59.93942701311696
block1.xlsx,192.5,7.5,9,7 x 5,40,17,7 x 5 = 40,large-sized_low-interference,large-sized,low-interference,7,IncorrectRESP,d,0,0,0,0,0,14,14,14,,,,,,,,,,,,,,,225.5879351980002,None,226.08329751699966,None,228.09199048499977,None,228.8419117049998,None,229.09202615100003,None,229.09202615100003,None,a,0,0.49366999000085343,229.09202615100003,None,229.60797731099956,None,229.60797731099956,None,d,0.3696387939999113,229.60797731099956,None,230.0087459589995,None,,,,,,,,,,,,,sub-10,08/08/2001,1: Male,21/10/2023,001,1: right,2023_Oct_21_0951,[FINAL]_fmri_multiplication,2021.2.3,59.93942701311696
block1.xlsx,209,7.5,5.8,6 x 3,18,7,6 x 3 = 18,small-sized_high-interference,small-sized,high-interference,8,CorrectRESP,a,0,0,0,0,0,15,15,15,,,,,,,,,,,,,,,239.00849493399983,None,239.5087655,None,241.50826685799984,None,242.2582062700003,None,242.50828538399946,None,242.50828538399946,None,d,0,0.4933525799988274,242.50828538399946,None,243.0245204519997,None,243.0245204519997,None,d,0.17711901999973634,243.0245204519997,None,243.22452532699936,None,,,,,,,,,,,,,sub-10,08/08/2001,1: Male,21/10/2023,001,1: right,2023_Oct_21_0951,[FINAL]_fmri_multiplication,2021.2.3,59.93942701311696
block1.xlsx,222.3,7.5,2.9,7 x 6,48,23,7 x 6 = 48,large-sized_high-interference,large-sized,high-interference,22,IncorrectRESP,d,0,0,0,0,0,16,16,16,,,,,,,,,,,,,,,249.02502249099962,None,249.52494574699995,None,251.5250321069998,None,252.27503668699865,None,252.5245259209987,None,252.5245259209987,None,a,0,0.5410893719999876,252.5245259209987,None,253.09108835199913,None,253.09108835199913,None,d,0.21463707000111754,253.09108835199913,None,253.3246132789991,None,,,,,,,,,,,,,sub-10,08/08/2001,1: Male,21/10/2023,001,1: right,2023_Oct_21_0951,[FINAL]_fmri_multiplication,2021.2.3,59.93942701311696
block1.xlsx,232.7,7.5,6.9,9 x 5,45,15,9 x 5 = 45,large-sized_low-interference,large-sized,low-interference,6,CorrectRESP,a,0,0,0,0,0,17,17,17,,,,,,,,,,,,,,,256.22534609799914,None,256.7248893629985,None,258.72215864699865,None,259.46359441799905,None,259.71065418999933,None,259.71065418999933,None,d,0,0.4909884709995822,259.71065418999933,None,260.22492580799917,None,260.22492580799917,None,d,0.18470316999992065,260.22492580799917,None,260.4418756239993,None,,,,,,,,,,,,,sub-10,08/08/2001,1: Male,21/10/2023,001,1: right,2023_Oct_21_0951,[FINAL]_fmri_multiplication,2021.2.3,59.93942701311696
block1.xlsx,247.1,7.5,2.5,4 x 4,20,4,4 x 4 = 20,small-sized_low-interference,small-sized,low-interference,5,IncorrectRESP,d,0,0,0,0,0,18,18,18,,,,,,,,,,,,,,,267.34129689399924,None,267.84136566599955,None,269.8416951149993,None,270.59210418099974,None,270.84131307699863,None,270.84131307699863,None,a,0,0.5842877199993382,270.84131307699863,None,271.4582960009993,None,271.4582960009993,None,d,0.32743144699998084,271.4582960009993,None,271.8079278610003,None,,,,,,,,,,,,,sub-10,08/08/2001,1: Male,21/10/2023,001,1: right,2023_Oct_21_0951,[FINAL]_fmri_multiplication,2021.2.3,59.93942701311696
block1.xlsx,257.1,7.5,3.7,9 x 3,27,19,9 x 3 = 27,large-sized_high-interference,large-sized,high-interference,9,CorrectRESP,a,0,0,0,0,0,19,19,19,,,,,,,,,,,,,,,274.3081386569993,None,274.80822711399924,None,276.8083313,None,277.55840048400023,None,277.8084278440001,None,277.8084278440001,None,d,0,0.521308436,277.8084278440001,None,278.3568303809989,None,278.3568303809989,None,d,0.16486946100121713,278.3568303809989,None,278.5412159759999,None,,,,,,,,,,,,,sub-10,08/08/2001,1: Male,21/10/2023,001,1: right,2023_Oct_21_0951,[FINAL]_fmri_multiplication,2021.2.3,59.93942701311696
block1.xlsx,268.3,7.5,3.5,4 x 5,20,8,4 x 5 = 20,small-sized_high-interference,small-sized,high-interference,8,CorrectRESP,a,0,0,0,0,0,20,20,20,,,,,,,,,,,,,,,282.2411634,None,282.7414533939991,None,284.7415852,None,285.49147746000017,None,285.7418047579995,None,285.7418047579995,None,d,0,0.5479003759992338,285.7418047579995,None,286.30780813599995,None,286.30780813599995,None,d,0.173891693,286.30780813599995,None,286.5076571409991,None,,,,,,,,,,,,,sub-10,08/08/2001,1: Male,21/10/2023,001,1: right,2023_Oct_21_0951,[FINAL]_fmri_multiplication,2021.2.3,59.93942701311696
block1.xlsx,279.3,7.5,11.6,9 x 9,72,16,9 x 9 = 72,large-sized_low-interference,large-sized,low-interference,6,IncorrectRESP,d,0,0,0,0,0,21,21,21,,,,,,,,,,,,,,,290.0084845,None,290.5081849729995,None,292.5100388489991,None,293.2548727409994,None,293.5009009329988,None,293.5009009329988,None,a,0,0.5007168490010372,293.5009009329988,None,294.0244482099988,None,294.0244482099988,None,d,0.2252796929988108,294.0244482099988,None,294.2748681689991,None,,,,,,,,,,,,,sub-10,08/08/2001,1: Male,21/10/2023,001,1: right,2023_Oct_21_0951,[FINAL]_fmri_multiplication,2021.2.3,59.93942701311696
block1.xlsx,298.4,7.5,12.8,3 x 8,21,12,3 x 8 = 21,small-sized_high-interference,small-sized,high-interference,13,IncorrectRESP,d,0,0,0,0,0,22,22,22,,,,,,,,,,,,,,,305.87502847999895,None,306.37434169900007,None,308.37464188099875,None,309.12490216100014,None,309.37495649099947,None,309.37495649099947,None,a,0,0.5626763989985193,309.37495649099947,None,309.9578492109995,None,309.9578492109995,None,d,0.3238732460013125,309.9578492109995,None,310.30803915700017,None,,,,,,,,,,,,,sub-10,08/08/2001,1: Male,21/10/2023,001,1: right,2023_Oct_21_0951,[FINAL]_fmri_multiplication,2021.2.3,59.93942701311696
block1.xlsx,318.7,7.5,8.8,8 x 2,18,5,8 x 2 = 18,small-sized_low-interference,small-sized,low-interference,7,IncorrectRESP,d,0,0,0,0,0,23,23,23,,,,,,,,,,,,,,,323.1080463339986,None,323.60727297999983,None,325.6083104499994,None,326.35852648199943,None,326.6083307600002,None,326.6083307600002,None,a,0,0.6173042160007753,326.6083307600002,None,327.2580284,None,327.2580284,None,d,0.22370091800075897,327.2580284,None,327.50596122800016,None,,,,,,,,,,,,,sub-10,08/08/2001,1: Male,21/10/2023,001,1: right,2023_Oct_21_0951,[FINAL]_fmri_multiplication,2021.2.3,59.93942701311696
block1.xlsx,,,,,,,,,,,,,,0,0,0,0,,,,,0,0,0,0,,,,,,,,,,,,,,,,,,,,,,,,,,,,,,,,,,,,,,336.31125002099907,None,336.31125002099907,None,,,,,,,,,sub-10,08/08/2001,1: Male,21/10/2023,001,1: right,2023_Oct_21_0951,[FINAL]_fmri_multiplication,2021.2.3,59.93942701311696
block1.xlsx,,,,,,,,,,,,,,0,0,0,0,,,,,1,0,1,0,,,,,,,,,,,,,,,,,,,,,,,,,,,,,,,,,,,,,,337.3265552949997,None,337.3265552949997,None,,,,,,,,,sub-10,08/08/2001,1: Male,21/10/2023,001,1: right,2023_Oct_21_0951,[FINAL]_fmri_multiplication,2021.2.3,59.93942701311696
block1.xlsx,,,,,,,,,,,,,,0,0,0,0,,,,,2,0,2,0,,,,,,,,,,,,,,,,,,,,,,,,,,,,,,,,,,,,,,338.32560963299875,None,338.32560963299875,None,,,,,,,,,sub-10,08/08/2001,1: Male,21/10/2023,001,1: right,2023_Oct_21_0951,[FINAL]_fmri_multiplication,2021.2.3,59.93942701311696
block1.xlsx,,,,,,,,,,,,,,0,0,0,0,,,,,3,0,3,0,,,,,,,,,,,,,,,,,,,,,,,,,,,,,,,,,,,,,,339.32577062999917,None,339.32577062999917,None,,,,,,,,,sub-10,08/08/2001,1: Male,21/10/2023,001,1: right,2023_Oct_21_0951,[FINAL]_fmri_multiplication,2021.2.3,59.93942701311696
block1.xlsx,,,,,,,,,,,,,,0,0,0,0,,,,,4,0,4,0,,,,,,,,,,,,,,,,,,,,,,,,,,,,,,,,,,,,,,340.3254310079992,None,340.3254310079992,None,,,,,,,,,sub-10,08/08/2001,1: Male,21/10/2023,001,1: right,2023_Oct_21_0951,[FINAL]_fmri_multiplication,2021.2.3,59.93942701311696
block1.xlsx,,,,,,,,,,,,,,0,0,0,0,,,,,5,0,5,0,,,,,,,,,,,,,,,,,,,,,,,,,,,,,,,,,,,,,,341.3259756360003,None,341.3259756360003,None,,,,,,,,,sub-10,08/08/2001,1: Male,21/10/2023,001,1: right,2023_Oct_21_0951,[FINAL]_fmri_multiplication,2021.2.3,59.93942701311696
block1.xlsx,,,,,,,,,,,,,,0,0,0,0,,,,,6,0,6,0,,,,,,,,,,,,,,,,,,,,,,,,,,,,,,,,,,,,,,342.32502531799946,None,342.32502531799946,None,,,,,,,,,sub-10,08/08/2001,1: Male,21/10/2023,001,1: right,2023_Oct_21_0951,[FINAL]_fmri_multiplication,2021.2.3,59.93942701311696
block1.xlsx,,,,,,,,,,,,,,0,0,0,0,,,,,7,0,7,0,,,,,,,,,,,,,,,,,,,,,,,,,,,,,,,,,,,,,,343.3248678439995,None,343.3248678439995,None,,,,,,,,,sub-10,08/08/2001,1: Male,21/10/2023,001,1: right,2023_Oct_21_0951,[FINAL]_fmri_multiplication,2021.2.3,59.93942701311696
block1.xlsx,,,,,,,,,,,,,,0,0,0,0,,,,,8,0,8,0,,,,,,,,,,,,,,,,,,,,,,,,,,,,,,,,,,,,,,344.32494659999975,None,344.32494659999975,None,,,,,,,,,sub-10,08/08/2001,1: Male,21/10/2023,001,1: right,2023_Oct_21_0951,[FINAL]_fmri_multiplication,2021.2.3,59.93942701311696
block1.xlsx,,,,,,,,,,,,,,0,0,0,0,,,,,9,0,9,0,,,,,,,,,,,,,,,,,,,,,,,,,,,,,,,,,,,,,,345.3265929,None,345.3265929,None,,,,,,,,,sub-10,08/08/2001,1: Male,21/10/2023,001,1: right,2023_Oct_21_0951,[FINAL]_fmri_multiplication,2021.2.3,59.93942701311696
block1.xlsx,,,,,,,,,,,,,,0,0,0,0,,,,,10,0,10,0,,,,,,,,,,,,,,,,,,,,,,,,,,,,,,,,,,,,,,346.32518076199995,None,346.32518076199995,None,,,,,,,,,sub-10,08/08/2001,1: Male,21/10/2023,001,1: right,2023_Oct_21_0951,[FINAL]_fmri_multiplication,2021.2.3,59.93942701311696
block1.xlsx,,,,,,,,,,,,,,0,0,0,0,,,,,11,0,11,0,,,,,,,,,,,,,,,,,,,,,,,,,,,,,,,,,,,,,,347.3273550879985,None,347.3273550879985,None,,,,,,,,,sub-10,08/08/2001,1: Male,21/10/2023,001,1: right,2023_Oct_21_0951,[FINAL]_fmri_multiplication,2021.2.3,59.93942701311696
block1.xlsx,,,,,,,,,,,,,,0,0,0,0,,,,,12,0,12,0,,,,,,,,,,,,,,,,,,,,,,,,,,,,,,,,,,,,,,348.32588572199893,None,348.32588572199893,None,,,,,,,,,sub-10,08/08/2001,1: Male,21/10/2023,001,1: right,2023_Oct_21_0951,[FINAL]_fmri_multiplication,2021.2.3,59.93942701311696
block1.xlsx,,,,,,,,,,,,,,0,0,0,0,,,,,13,0,13,0,,,,,,,,,,,,,,,,,,,,,,,,,,,,,,,,,,,,,,349.3237164889997,None,349.3237164889997,None,,,,,,,,,sub-10,08/08/2001,1: Male,21/10/2023,001,1: right,2023_Oct_21_0951,[FINAL]_fmri_multiplication,2021.2.3,59.93942701311696
block1.xlsx,,,,,,,,,,,,,,0,0,0,0,,,,,14,0,14,0,,,,,,,,,,,,,,,,,,,,,,,,,,,,,,,,,,,,,,350.32453747199907,None,350.32453747199907,None,,,,,,,,,sub-10,08/08/2001,1: Male,21/10/2023,001,1: right,2023_Oct_21_0951,[FINAL]_fmri_multiplication,2021.2.3,59.93942701311696
block1.xlsx,,,,,,,,,,,,,,0,0,0,0,,,,,15,0,15,0,,,,,,,,,,,,,,,,,,,,,,,,,,,,,,,,,,,,,,351.3251128599986,None,351.3251128599986,None,,,,,,,,,sub-10,08/08/2001,1: Male,21/10/2023,001,1: right,2023_Oct_21_0951,[FINAL]_fmri_multiplication,2021.2.3,59.93942701311696
block1.xlsx,,,,,,,,,,,,,,0,0,0,0,,,,,16,0,16,0,,,,,,,,,,,,,,,,,,,,,,,,,,,,,,,,,,,,,,352.3256814589986,None,352.3256814589986,None,,,,,,,,,sub-10,08/08/2001,1: Male,21/10/2023,001,1: right,2023_Oct_21_0951,[FINAL]_fmri_multiplication,2021.2.3,59.93942701311696
block1.xlsx,,,,,,,,,,,,,,0,0,0,0,,,,,17,0,17,0,,,,,,,,,,,,,,,,,,,,,,,,,,,,,,,,,,,,,,353.3257362439999,None,353.3257362439999,None,,,,,,,,,sub-10,08/08/2001,1: Male,21/10/2023,001,1: right,2023_Oct_21_0951,[FINAL]_fmri_multiplication,2021.2.3,59.93942701311696
block1.xlsx,,,,,,,,,,,,,,0,0,0,0,,,,,18,0,18,0,,,,,,,,,,,,,,,,,,,,,,,,,,,,,,,,,,,,,,354.3252009480002,None,354.3252009480002,None,,,,,,,,,sub-10,08/08/2001,1: Male,21/10/2023,001,1: right,2023_Oct_21_0951,[FINAL]_fmri_multiplication,2021.2.3,59.93942701311696
block1.xlsx,,,,,,,,,,,,,,0,0,0,0,,,,,19,0,19,0,,,,,,,,,,,,,,,,,,,,,,,,,,,,,,,,,,,,,,355.3258868639987,None,355.3258868639987,None,,,,,,,,,sub-10,08/08/2001,1: Male,21/10/2023,001,1: right,2023_Oct_21_0951,[FINAL]_fmri_multiplication,2021.2.3,59.93942701311696
block1.xlsx,,,,,,,,,,,,,,0,0,0,0,,,,,20,0,20,0,,,,,,,,,,,,,,,,,,,,,,,,,,,,,,,,,,,,,,356.32664440199915,None,356.32664440199915,None,,,,,,,,,sub-10,08/08/2001,1: Male,21/10/2023,001,1: right,2023_Oct_21_0951,[FINAL]_fmri_multiplication,2021.2.3,59.93942701311696
block1.xlsx,,,,,,,,,,,,,,0,0,0,0,,,,,21,0,21,0,,,,,,,,,,,,,,,,,,,,,,,,,,,,,,,,,,,,,,357.32505531899915,None,357.32505531899915,None,,,,,,,,,sub-10,08/08/2001,1: Male,21/10/2023,001,1: right,2023_Oct_21_0951,[FINAL]_fmri_multiplication,2021.2.3,59.93942701311696
block1.xlsx,,,,,,,,,,,,,,0,0,0,0,,,,,22,0,22,0,,,,,,,,,,,,,,,,,,,,,,,,,,,,,,,,,,,,,,358.3248884929999,None,358.3248884929999,None,,,,,,,,,sub-10,08/08/2001,1: Male,21/10/2023,001,1: right,2023_Oct_21_0951,[FINAL]_fmri_multiplication,2021.2.3,59.93942701311696
block1.xlsx,,,,,,,,,,,,,,0,0,0,0,,,,,23,0,23,0,,,,,,,,,,,,,,,,,,,,,,,,,,,,,,,,,,,,,,359.33912776099896,None,359.33912776099896,None,,,,,,,,,sub-10,08/08/2001,1: Male,21/10/2023,001,1: right,2023_Oct_21_0951,[FINAL]_fmri_multiplication,2021.2.3,59.93942701311696
block1.xlsx,,,,,,,,,,,,,,0,0,0,0,,,,,24,0,24,0,,,,,,,,,,,,,,,,,,,,,,,,,,,,,,,,,,,,,,360.3251776529996,None,360.3251776529996,None,,,,,,,,,sub-10,08/08/2001,1: Male,21/10/2023,001,1: right,2023_Oct_21_0951,[FINAL]_fmri_multiplication,2021.2.3,59.93942701311696
block1.xlsx,,,,,,,,,,,,,,0,0,0,0,,,,,25,0,25,0,,,,,,,,,,,,,,,,,,,,,,,,,,,,,,,,,,,,,,361.3392601689993,None,361.3392601689993,None,,,,,,,,,sub-10,08/08/2001,1: Male,21/10/2023,001,1: right,2023_Oct_21_0951,[FINAL]_fmri_multiplication,2021.2.3,59.93942701311696
block1.xlsx,,,,,,,,,,,,,,0,0,0,0,,,,,26,0,26,0,,,,,,,,,,,,,,,,,,,,,,,,,,,,,,,,,,,,,,362.3272891,None,362.3272891,None,,,,,,,,,sub-10,08/08/2001,1: Male,21/10/2023,001,1: right,2023_Oct_21_0951,[FINAL]_fmri_multiplication,2021.2.3,59.93942701311696
block1.xlsx,,,,,,,,,,,,,,0,0,0,0,,,,,27,0,27,0,,,,,,,,,,,,,,,,,,,,,,,,,,,,,,,,,,,,,,363.32403121599964,None,363.32403121599964,None,,,,,,,,,sub-10,08/08/2001,1: Male,21/10/2023,001,1: right,2023_Oct_21_0951,[FINAL]_fmri_multiplication,2021.2.3,59.93942701311696
block1.xlsx,,,,,,,,,,,,,,0,0,0,0,,,,,28,0,28,0,,,,,,,,,,,,,,,,,,,,,,,,,,,,,,,,,,,,,,364.32528666299913,None,364.32528666299913,None,,,,,,,,,sub-10,08/08/2001,1: Male,21/10/2023,001,1: right,2023_Oct_21_0951,[FINAL]_fmri_multiplication,2021.2.3,59.93942701311696
block1.xlsx,,,,,,,,,,,,,,0,0,0,0,,,,,29,0,29,0,,,,,,,,,,,,,,,,,,,,,,,,,,,,,,,,,,,,,,365.3272278629993,None,365.3272278629993,None,,,,,,,,,sub-10,08/08/2001,1: Male,21/10/2023,001,1: right,2023_Oct_21_0951,[FINAL]_fmri_multiplication,2021.2.3,59.93942701311696
block1.xlsx,,,,,,,,,,,,,,0,0,0,0,,,,,,,,,,,,,,,,,,,,,,,,,,,,,,,,,,,,,,,,,,,,,,,,,,,,,,,,,,sub-10,08/08/2001,1: Male,21/10/2023,001,1: right,2023_Oct_21_0951,[FINAL]_fmri_multiplication,2021.2.3,59.93942701311696
block2.xlsx,10,7.5,3.4,3 x 4,15,9,3 x 4 = 15,small-sized_high-interference,small-sized,high-interference,10,IncorrectRESP,d,0,1,1,1,0,0,0,0,,,,,,,,,,,,,366.3256271399987,None,376.34678449700004,None,376.8248871349988,None,378.8250403,None,379.5749335769997,None,379.8248109870001,None,379.8248109870001,None,a,0,0.5528101260006224,379.8248109870001,None,380.40815773899885,None,380.40815773899885,None,d,0.2976783600006456,380.40815773899885,None,380.72454907499923,None,,,,,,,,,,,,,sub-10,08/08/2001,1: Male,21/10/2023,001,1: right,2023_Oct_21_0951,[FINAL]_fmri_multiplication,2021.2.3,59.93942701311696
block2.xlsx,20.9,7.5,7,9 x 5,40,15,9 x 5 = 40,large-sized_low-interference,large-sized,low-interference,6,IncorrectRESP,d,0,1,1,1,0,1,1,1,,,,,,,,,,,,,,,384.1247543399986,None,384.64206954699875,None,386.6250438,None,387.37489653800003,None,387.6251349239992,None,387.6251349239992,None,a,0,0.6085687380000309,387.6251349239992,None,388.2578766759998,None,388.2578766759998,None,d,0.21584745300060604,388.2578766759998,None,388.49132101800024,None,,,,,,,,,,,,,sub-10,08/08/2001,1: Male,21/10/2023,001,1: right,2023_Oct_21_0951,[FINAL]_fmri_multiplication,2021.2.3,59.93942701311696
block2.xlsx,35.4,7.5,6.6,6 x 4,24,10,6 x 4 = 24,small-sized_high-interference,small-sized,high-interference,12,CorrectRESP,a,0,1,1,1,0,2,2,2,,,,,,,,,,,,,,,395.4920760929999,None,395.99152030999903,None,397.99201558299865,None,398.74215709499913,None,398.9936824799988,None,398.9936824799988,None,d,0,0.5920393140004307,398.9936824799988,None,399.6082897569995,None,399.6082897569995,None,d,0.2254667180004617,399.6082897569995,None,399.85852315899865,None,,,,,,,,,,,,,sub-10,08/08/2001,1: Male,21/10/2023,001,1: right,2023_Oct_21_0951,[FINAL]_fmri_multiplication,2021.2.3,59.93942701311696
block2.xlsx,49.5,7.5,12,7 x 6,42,23,7 x 6 = 42,large-sized_high-interference,large-sized,high-interference,22,CorrectRESP,a,0,1,1,1,0,3,3,3,,,,,,,,,,,,,,,406.4584646329986,None,406.9577667729991,None,408.95816491499863,None,409.70828522599913,None,409.9577895860002,None,409.9577895860002,None,d,0,0.5798972270004015,409.9577895860002,None,410.55776314799914,None,410.55776314799914,None,d,0.19589423700017505,410.55776314799914,None,410.77472788199884,None,,,,,,,,,,,,,sub-10,08/08/2001,1: Male,21/10/2023,001,1: right,2023_Oct_21_0951,[FINAL]_fmri_multiplication,2021.2.3,59.93942701311696
block2.xlsx,69,7.5,4.9,6 x 2,12,6,6 x 2 = 12,small-sized_low-interference,small-sized,low-interference,3,CorrectRESP,a,0,1,1,1,0,4,4,4,,,,,,,,,,,,,,,422.77453709699876,None,423.27488817299854,None,425.2749588030001,None,426.02508549699996,None,426.27487498699884,None,426.27487498699884,None,d,0,0.49476429000060307,426.27487498699884,None,426.7912532549999,None,426.7912532549999,None,d,0.19447732200023893,426.7912532549999,None,427.0078932849992,None,,,,,,,,,,,,,sub-10,08/08/2001,1: Male,21/10/2023,001,1: right,2023_Oct_21_0951,[FINAL]_fmri_multiplication,2021.2.3,59.93942701311696
block2.xlsx,81.4,7.5,6.6,4 x 9,32,20,4 x 9 = 32,large-sized_high-interference,large-sized,high-interference,9,IncorrectRESP,d,0,1,1,1,0,5,5,5,,,,,,,,,,,,,,,431.9081673059991,None,432.4083161639992,None,434.4052193919997,None,435.1466912220003,None,435.3938016989996,None,435.3938016989996,None,a,0,0.719918882,435.3938016989996,None,436.14168907899875,None,436.14168907899875,None,d,0.2679251669997029,436.14168907899875,None,436.4420186719999,None,,,,,,,,,,,,,sub-10,08/08/2001,1: Male,21/10/2023,001,1: right,2023_Oct_21_0951,[FINAL]_fmri_multiplication,2021.2.3,59.93942701311696
block2.xlsx,95.5,7.5,2.6,5 x 5,30,3,5 x 5 = 30,small-sized_low-interference,small-sized,low-interference,3,IncorrectRESP,d,0,1,1,1,0,6,6,6,,,,,,,,,,,,,,,443.0416943459986,None,443.5418165279989,None,445.54164081399904,None,446.29158452499905,None,446.5413204079996,None,446.5413204079996,None,a,0,0.5244016720007494,446.5413204079996,None,447.0912065399989,None,447.0912065399989,None,d,0.37444580100054736,447.0912065399989,None,447.4914389429996,None,,,,,,,,,,,,,sub-10,08/08/2001,1: Male,21/10/2023,001,1: right,2023_Oct_21_0951,[FINAL]_fmri_multiplication,2021.2.3,59.93942701311696
block2.xlsx,105.6,7.5,3.7,8 x 4,32,24,8 x 4 = 32,large-sized_high-interference,large-sized,high-interference,25,CorrectRESP,a,0,1,1,1,0,7,7,7,,,,,,,,,,,,,,,450.0916968780002,None,450.5914961919989,None,452.59169461999954,None,453.34167088199865,None,453.5917231980002,None,453.5917231980002,None,d,0,0.47399807199872157,453.5917231980002,None,454.0902714650001,None,454.0902714650001,None,d,0.1835054780003702,454.0902714650001,None,454.29118209399894,None,,,,,,,,,,,,,sub-10,08/08/2001,1: Male,21/10/2023,001,1: right,2023_Oct_21_0951,[FINAL]_fmri_multiplication,2021.2.3,59.93942701311696
block2.xlsx,116.8,7.5,3.1,2 x 9,16,2,2 x 9 = 16,small-sized_low-interference,small-sized,low-interference,7,IncorrectRESP,d,0,1,1,1,0,8,8,8,,,,,,,,,,,,,,,457.9917155669991,None,458.49145420700006,None,460.49162585199883,None,461.24164949700025,None,461.49101829400024,None,461.49101829400024,None,a,0,0.5826596059996518,461.49101829400024,None,462.0917273289997,None,462.0917273289997,None,d,0.28595997099910164,462.0917273289997,None,462.40817941000023,None,,,,,,,,,,,,,sub-10,08/08/2001,1: Male,21/10/2023,001,1: right,2023_Oct_21_0951,[FINAL]_fmri_multiplication,2021.2.3,59.93942701311696
block2.xlsx,127.4,7.5,12.2,5 x 8,45,21,5 x 8 = 45,large-sized_high-interference,large-sized,high-interference,9,IncorrectRESP,d,0,1,1,1,0,9,9,9,,,,,,,,,,,,,,,465.5084078889995,None,466.00886001300023,None,468.00851157299985,None,468.7553345870001,None,469.0010411839994,None,469.0010411839994,None,a,0,0.5765839880004933,469.0010411839994,None,469.60842075799883,None,469.60842075799883,None,d,0.2492882690003171,469.60842075799883,None,469.87427386499985,None,,,,,,,,,,,,,sub-10,08/08/2001,1: Male,21/10/2023,001,1: right,2023_Oct_21_0951,[FINAL]_fmri_multiplication,2021.2.3,59.93942701311696
block2.xlsx,147.1,7.5,13.3,6 x 6,30,13,6 x 6 = 30,large-sized_low-interference,large-sized,low-interference,4,IncorrectRESP,d,0,1,1,1,0,10,10,10,,,,,,,,,,,,,,,482.07503204599925,None,482.57471501500004,None,484.5750191389998,None,485.3245135090001,None,485.57373769900005,None,485.57373769900005,None,a,0,0.5079168360007316,485.57373769900005,None,486.1075407440003,None,486.1075407440003,None,d,0.25408191099995747,486.1075407440003,None,486.3916147250002,None,,,,,,,,,,,,,sub-10,08/08/2001,1: Male,21/10/2023,001,1: right,2023_Oct_21_0951,[FINAL]_fmri_multiplication,2021.2.3,59.93942701311696
block2.xlsx,167.9,7.5,2.8,7 x 3,21,11,7 x 3 = 21,small-sized_high-interference,small-sized,high-interference,13,CorrectRESP,a,0,1,1,1,0,11,11,11,,,,,,,,,,,,,,,499.6913604,None,500.19001820999983,None,502.19183904799866,None,502.94183588299893,None,503.1922028079989,None,503.1922028079989,None,d,0,0.7294979359994613,503.1922028079989,None,503.9417729349989,None,503.9417729349989,None,d,0.1879416459996719,503.9417729349989,None,504.15872603000025,None,,,,,,,,,,,,,sub-10,08/08/2001,1: Male,21/10/2023,001,1: right,2023_Oct_21_0951,[FINAL]_fmri_multiplication,2021.2.3,59.93942701311696
block2.xlsx,178.2,7.5,3.4,8 x 7,56,22,8 x 7 = 56,large-sized_high-interference,large-sized,high-interference,9,CorrectRESP,a,0,1,1,1,0,12,12,12,,,,,,,,,,,,,,,506.9587543050002,None,507.4571938729987,None,509.4586906989989,None,510.20871535900005,None,510.4607816150001,None,510.4607816150001,None,d,0,0.6689385779991426,510.4607816150001,None,511.1583089,None,511.1583089,None,d,0.16337316300086968,511.1583089,None,511.34131782700024,None,,,,,,,,,,,,,sub-10,08/08/2001,1: Male,21/10/2023,001,1: right,2023_Oct_21_0951,[FINAL]_fmri_multiplication,2021.2.3,59.93942701311696
block2.xlsx,189.1,7.5,3.9,3 x 8,24,12,3 x 8 = 24,small-sized_high-interference,small-sized,high-interference,13,CorrectRESP,a,0,1,1,1,0,13,13,13,,,,,,,,,,,,,,,514.7415661,None,515.2412449719995,None,517.2419161540001,None,517.9917470219989,None,518.2415894459991,None,518.2415894459991,None,d,0,0.44808069200007594,518.2415894459991,None,518.7078944819987,None,518.7078944819987,None,d,0.15777182199963136,518.7078944819987,None,518.8916288149994,None,,,,,,,,,,,,,sub-10,08/08/2001,1: Male,21/10/2023,001,1: right,2023_Oct_21_0951,[FINAL]_fmri_multiplication,2021.2.3,59.93942701311696
block2.xlsx,200.5,7.5,2,5 x 6,36,14,5 x 6 = 36,large-sized_low-interference,large-sized,low-interference,6,IncorrectRESP,d,0,1,1,1,0,14,14,14,,,,,,,,,,,,,,,522.7909800069992,None,523.2911897060003,None,525.2913383,None,526.0415120580001,None,526.2911719129988,None,526.2911719129988,None,a,0,0.5745468780005467,526.2911719129988,None,526.8909961659992,None,526.8909961659992,None,d,0.2866151099988201,526.8909961659992,None,527.2083014079999,None,,,,,,,,,,,,,sub-10,08/08/2001,1: Male,21/10/2023,001,1: right,2023_Oct_21_0951,[FINAL]_fmri_multiplication,2021.2.3,59.93942701311696
block2.xlsx,210,7.5,8.2,7 x 2,12,1,7 x 2 = 12,small-sized_low-interference,small-sized,low-interference,4,IncorrectRESP,d,0,1,1,1,0,15,15,15,,,,,,,,,,,,,,,529.2078215,None,529.7066823619989,None,531.7081070929999,None,532.4583177799996,None,532.7077160890003,None,532.7077160890003,None,a,0,0.582021917,532.7077160890003,None,533.3078142799986,None,533.3078142799986,None,d,0.24582486799954495,533.3078142799986,None,533.5745929629993,None,,,,,,,,,,,,,sub-10,08/08/2001,1: Male,21/10/2023,001,1: right,2023_Oct_21_0951,[FINAL]_fmri_multiplication,2021.2.3,59.93942701311696
block2.xlsx,225.7,7.5,6.5,9 x 9,81,16,9 x 9 = 81,large-sized_low-interference,large-sized,low-interference,6,CorrectRESP,a,0,1,1,1,0,16,16,16,,,,,,,,,,,,,,,541.7723241619988,None,542.2748903800002,None,544.2753288389995,None,545.0253090909991,None,545.2751785909986,None,545.2751785909986,None,d,0,0.5666168049992848,545.2751785909986,None,545.8584487959997,None,545.8584487959997,None,d,0.17532049,545.8584487959997,None,546.0586441759988,None,,,,,,,,,,,,,sub-10,08/08/2001,1: Male,21/10/2023,001,1: right,2023_Oct_21_0951,[FINAL]_fmri_multiplication,2021.2.3,59.93942701311696
block2.xlsx,239.7,7.5,6.2,4 x 5,16,8,4 x 5 = 16,small-sized_high-interference,small-sized,high-interference,8,IncorrectRESP,d,0,1,1,1,0,17,17,17,,,,,,,,,,,,,,,552.5584965010003,None,553.0584427309986,None,555.0570019119987,None,555.8083297880003,None,556.0579709639987,None,556.0579709639987,None,a,0,0.5276141169997572,556.0579709639987,None,556.6079867539993,None,556.6079867539993,None,d,0.2655685749996337,556.6079867539993,None,556.9058590549994,None,,,,,,,,,,,,,sub-10,08/08/2001,1: Male,21/10/2023,001,1: right,2023_Oct_21_0951,[FINAL]_fmri_multiplication,2021.2.3,59.93942701311696
block2.xlsx,253.4,7.5,11.8,8 x 2,16,5,8 x 2 = 16,small-sized_low-interference,small-sized,low-interference,7,CorrectRESP,a,0,1,1,1,0,18,18,18,,,,,,,,,,,,,,,563.1067378959997,None,563.6067636259995,None,565.6233841079993,None,566.3733579339987,None,566.6266509340003,None,566.6266509340003,None,d,0,0.5509340669996163,566.6266509340003,None,567.2094491279986,None,567.2094491279986,None,d,0.1761978110007476,567.2094491279986,None,567.4058344819987,None,,,,,,,,,,,,,sub-10,08/08/2001,1: Male,21/10/2023,001,1: right,2023_Oct_21_0951,[FINAL]_fmri_multiplication,2021.2.3,59.93942701311696
block2.xlsx,272.7,7.5,3.7,7 x 5,35,17,7 x 5 = 35,large-sized_low-interference,large-sized,low-interference,7,CorrectRESP,a,0,1,1,1,0,19,19,19,,,,,,,,,,,,,,,579.2088030209998,None,579.7068586,None,581.7083108499992,None,582.4585612829997,None,582.7079184,None,582.7079184,None,d,0,0.45368785000027856,582.7079184,None,583.1917521359992,None,583.1917521359992,None,d,0.16992004200074007,583.1917521359992,None,583.3915609979995,None,,,,,,,,,,,,,sub-10,08/08/2001,1: Male,21/10/2023,001,1: right,2023_Oct_21_0951,[FINAL]_fmri_multiplication,2021.2.3,59.93942701311696
block2.xlsx,283.9,7.5,6,6 x 3,15,7,6 x 3 = 15,small-sized_high-interference,small-sized,high-interference,8,IncorrectRESP,d,0,1,1,1,0,20,20,20,,,,,,,,,,,,,,,587.0916479,None,587.5918528719994,None,589.5919044249986,None,590.3418833449996,None,590.591657,None,590.591657,None,a,0,0.5300549580006191,590.591657,None,591.1411395949999,None,591.1411395949999,None,d,0.23648234699976456,591.1411395949999,None,591.4083307189994,None,,,,,,,,,,,,,sub-10,08/08/2001,1: Male,21/10/2023,001,1: right,2023_Oct_21_0951,[FINAL]_fmri_multiplication,2021.2.3,59.93942701311696
block2.xlsx,297.4,7.5,6.1,9 x 3,24,19,9 x 3 = 24,large-sized_high-interference,large-sized,high-interference,9,IncorrectRESP,d,0,1,1,1,0,21,21,21,,,,,,,,,,,,,,,597.4075949239996,None,597.9083437310001,None,599.9083501489986,None,600.6582930959994,None,600.9081121109994,None,600.9081121109994,None,a,0,0.5416336739999679,600.9081121109994,None,601.4750954559986,None,601.4750954559986,None,d,0.34259684500102594,601.4750954559986,None,601.8416115459986,None,,,,,,,,,,,,,sub-10,08/08/2001,1: Male,21/10/2023,001,1: right,2023_Oct_21_0951,[FINAL]_fmri_multiplication,2021.2.3,59.93942701311696
block2.xlsx,311,7.5,5.1,4 x 4,16,4,4 x 4 = 16,small-sized_low-interference,small-sized,low-interference,5,CorrectRESP,a,0,1,1,1,0,22,22,22,,,,,,,,,,,,,,,607.9415625,None,608.4417525379995,None,610.4385935099999,None,611.1797057349995,None,611.4274840159997,None,611.4274840159997,None,d,0,0.48625650699977996,611.4274840159997,None,611.9416917629987,None,611.9416917629987,None,d,0.15603062700029113,611.9416917629987,None,612.1254208249993,None,,,,,,,,,,,,,sub-10,08/08/2001,1: Male,21/10/2023,001,1: right,2023_Oct_21_0951,[FINAL]_fmri_multiplication,2021.2.3,59.93942701311696
block2.xlsx,323.6,7.5,3.9,7 x 7,49,18,7 x 7 = 49,large-sized_low-interference,large-sized,low-interference,7,CorrectRESP,a,0,1,1,1,0,23,23,23,,,,,,,,,,,,,,,617.2253676,None,617.7250516439999,None,619.7256468489995,None,620.4749834269987,None,620.7238635689991,None,620.7238635689991,None,d,0,0.4777339119991666,620.7238635689991,None,621.2244583399988,None,621.2244583399988,None,d,0.1612693709994346,621.2244583399988,None,621.4079301,None,,,,,,,,,,,,,sub-10,08/08/2001,1: Male,21/10/2023,001,1: right,2023_Oct_21_0951,[FINAL]_fmri_multiplication,2021.2.3,59.93942701311696
block2.xlsx,,,,,,,,,,,,,,0,1,1,1,,,,,0,0,0,0,,,,,,,,,,,,,,,,,,,,,,,,,,,,,,,,,,,,,,625.3097719289999,None,625.3097719289999,None,,,,,,,,,sub-10,08/08/2001,1: Male,21/10/2023,001,1: right,2023_Oct_21_0951,[FINAL]_fmri_multiplication,2021.2.3,59.93942701311696
block2.xlsx,,,,,,,,,,,,,,0,1,1,1,,,,,1,0,1,0,,,,,,,,,,,,,,,,,,,,,,,,,,,,,,,,,,,,,,626.3251456819999,None,626.3251456819999,None,,,,,,,,,sub-10,08/08/2001,1: Male,21/10/2023,001,1: right,2023_Oct_21_0951,[FINAL]_fmri_multiplication,2021.2.3,59.93942701311696
block2.xlsx,,,,,,,,,,,,,,0,1,1,1,,,,,2,0,2,0,,,,,,,,,,,,,,,,,,,,,,,,,,,,,,,,,,,,,,627.3246701,None,627.3246701,None,,,,,,,,,sub-10,08/08/2001,1: Male,21/10/2023,001,1: right,2023_Oct_21_0951,[FINAL]_fmri_multiplication,2021.2.3,59.93942701311696
block2.xlsx,,,,,,,,,,,,,,0,1,1,1,,,,,3,0,3,0,,,,,,,,,,,,,,,,,,,,,,,,,,,,,,,,,,,,,,628.3249950009995,None,628.3249950009995,None,,,,,,,,,sub-10,08/08/2001,1: Male,21/10/2023,001,1: right,2023_Oct_21_0951,[FINAL]_fmri_multiplication,2021.2.3,59.93942701311696
block2.xlsx,,,,,,,,,,,,,,0,1,1,1,,,,,4,0,4,0,,,,,,,,,,,,,,,,,,,,,,,,,,,,,,,,,,,,,,629.3250320459993,None,629.3250320459993,None,,,,,,,,,sub-10,08/08/2001,1: Male,21/10/2023,001,1: right,2023_Oct_21_0951,[FINAL]_fmri_multiplication,2021.2.3,59.93942701311696
block2.xlsx,,,,,,,,,,,,,,0,1,1,1,,,,,5,0,5,0,,,,,,,,,,,,,,,,,,,,,,,,,,,,,,,,,,,,,,630.3259874979994,None,630.3259874979994,None,,,,,,,,,sub-10,08/08/2001,1: Male,21/10/2023,001,1: right,2023_Oct_21_0951,[FINAL]_fmri_multiplication,2021.2.3,59.93942701311696
block2.xlsx,,,,,,,,,,,,,,0,1,1,1,,,,,6,0,6,0,,,,,,,,,,,,,,,,,,,,,,,,,,,,,,,,,,,,,,631.3250480409988,None,631.3250480409988,None,,,,,,,,,sub-10,08/08/2001,1: Male,21/10/2023,001,1: right,2023_Oct_21_0951,[FINAL]_fmri_multiplication,2021.2.3,59.93942701311696
block2.xlsx,,,,,,,,,,,,,,0,1,1,1,,,,,7,0,7,0,,,,,,,,,,,,,,,,,,,,,,,,,,,,,,,,,,,,,,632.3250689279994,None,632.3250689279994,None,,,,,,,,,sub-10,08/08/2001,1: Male,21/10/2023,001,1: right,2023_Oct_21_0951,[FINAL]_fmri_multiplication,2021.2.3,59.93942701311696
block2.xlsx,,,,,,,,,,,,,,0,1,1,1,,,,,8,0,8,0,,,,,,,,,,,,,,,,,,,,,,,,,,,,,,,,,,,,,,633.3251142609988,None,633.3251142609988,None,,,,,,,,,sub-10,08/08/2001,1: Male,21/10/2023,001,1: right,2023_Oct_21_0951,[FINAL]_fmri_multiplication,2021.2.3,59.93942701311696
block2.xlsx,,,,,,,,,,,,,,0,1,1,1,,,,,9,0,9,0,,,,,,,,,,,,,,,,,,,,,,,,,,,,,,,,,,,,,,634.3250004,None,634.3250004,None,,,,,,,,,sub-10,08/08/2001,1: Male,21/10/2023,001,1: right,2023_Oct_21_0951,[FINAL]_fmri_multiplication,2021.2.3,59.93942701311696
block2.xlsx,,,,,,,,,,,,,,0,1,1,1,,,,,10,0,10,0,,,,,,,,,,,,,,,,,,,,,,,,,,,,,,,,,,,,,,635.3248096609987,None,635.3248096609987,None,,,,,,,,,sub-10,08/08/2001,1: Male,21/10/2023,001,1: right,2023_Oct_21_0951,[FINAL]_fmri_multiplication,2021.2.3,59.93942701311696
block2.xlsx,,,,,,,,,,,,,,0,1,1,1,,,,,11,0,11,0,,,,,,,,,,,,,,,,,,,,,,,,,,,,,,,,,,,,,,636.3259671349988,None,636.3259671349988,None,,,,,,,,,sub-10,08/08/2001,1: Male,21/10/2023,001,1: right,2023_Oct_21_0951,[FINAL]_fmri_multiplication,2021.2.3,59.93942701311696
block2.xlsx,,,,,,,,,,,,,,0,1,1,1,,,,,12,0,12,0,,,,,,,,,,,,,,,,,,,,,,,,,,,,,,,,,,,,,,637.3244435469987,None,637.3244435469987,None,,,,,,,,,sub-10,08/08/2001,1: Male,21/10/2023,001,1: right,2023_Oct_21_0951,[FINAL]_fmri_multiplication,2021.2.3,59.93942701311696
block2.xlsx,,,,,,,,,,,,,,0,1,1,1,,,,,13,0,13,0,,,,,,,,,,,,,,,,,,,,,,,,,,,,,,,,,,,,,,638.3275054349997,None,638.3275054349997,None,,,,,,,,,sub-10,08/08/2001,1: Male,21/10/2023,001,1: right,2023_Oct_21_0951,[FINAL]_fmri_multiplication,2021.2.3,59.93942701311696
block2.xlsx,,,,,,,,,,,,,,0,1,1,1,,,,,14,0,14,0,,,,,,,,,,,,,,,,,,,,,,,,,,,,,,,,,,,,,,639.3259688149992,None,639.3259688149992,None,,,,,,,,,sub-10,08/08/2001,1: Male,21/10/2023,001,1: right,2023_Oct_21_0951,[FINAL]_fmri_multiplication,2021.2.3,59.93942701311696
block2.xlsx,,,,,,,,,,,,,,0,1,1,1,,,,,15,0,15,0,,,,,,,,,,,,,,,,,,,,,,,,,,,,,,,,,,,,,,640.3246545,None,640.3246545,None,,,,,,,,,sub-10,08/08/2001,1: Male,21/10/2023,001,1: right,2023_Oct_21_0951,[FINAL]_fmri_multiplication,2021.2.3,59.93942701311696
block2.xlsx,,,,,,,,,,,,,,0,1,1,1,,,,,16,0,16,0,,,,,,,,,,,,,,,,,,,,,,,,,,,,,,,,,,,,,,641.3241843779997,None,641.3241843779997,None,,,,,,,,,sub-10,08/08/2001,1: Male,21/10/2023,001,1: right,2023_Oct_21_0951,[FINAL]_fmri_multiplication,2021.2.3,59.93942701311696
block2.xlsx,,,,,,,,,,,,,,0,1,1,1,,,,,17,0,17,0,,,,,,,,,,,,,,,,,,,,,,,,,,,,,,,,,,,,,,642.3249859970001,None,642.3249859970001,None,,,,,,,,,sub-10,08/08/2001,1: Male,21/10/2023,001,1: right,2023_Oct_21_0951,[FINAL]_fmri_multiplication,2021.2.3,59.93942701311696
block2.xlsx,,,,,,,,,,,,,,0,1,1,1,,,,,18,0,18,0,,,,,,,,,,,,,,,,,,,,,,,,,,,,,,,,,,,,,,643.3256439559991,None,643.3256439559991,None,,,,,,,,,sub-10,08/08/2001,1: Male,21/10/2023,001,1: right,2023_Oct_21_0951,[FINAL]_fmri_multiplication,2021.2.3,59.93942701311696
block2.xlsx,,,,,,,,,,,,,,0,1,1,1,,,,,19,0,19,0,,,,,,,,,,,,,,,,,,,,,,,,,,,,,,,,,,,,,,644.3236630920001,None,644.3236630920001,None,,,,,,,,,sub-10,08/08/2001,1: Male,21/10/2023,001,1: right,2023_Oct_21_0951,[FINAL]_fmri_multiplication,2021.2.3,59.93942701311696
block2.xlsx,,,,,,,,,,,,,,0,1,1,1,,,,,20,0,20,0,,,,,,,,,,,,,,,,,,,,,,,,,,,,,,,,,,,,,,645.3248405569993,None,645.3248405569993,None,,,,,,,,,sub-10,08/08/2001,1: Male,21/10/2023,001,1: right,2023_Oct_21_0951,[FINAL]_fmri_multiplication,2021.2.3,59.93942701311696
block2.xlsx,,,,,,,,,,,,,,0,1,1,1,,,,,21,0,21,0,,,,,,,,,,,,,,,,,,,,,,,,,,,,,,,,,,,,,,646.3252119699991,None,646.3252119699991,None,,,,,,,,,sub-10,08/08/2001,1: Male,21/10/2023,001,1: right,2023_Oct_21_0951,[FINAL]_fmri_multiplication,2021.2.3,59.93942701311696
block2.xlsx,,,,,,,,,,,,,,0,1,1,1,,,,,22,0,22,0,,,,,,,,,,,,,,,,,,,,,,,,,,,,,,,,,,,,,,647.3254615699989,None,647.3254615699989,None,,,,,,,,,sub-10,08/08/2001,1: Male,21/10/2023,001,1: right,2023_Oct_21_0951,[FINAL]_fmri_multiplication,2021.2.3,59.93942701311696
block2.xlsx,,,,,,,,,,,,,,0,1,1,1,,,,,23,0,23,0,,,,,,,,,,,,,,,,,,,,,,,,,,,,,,,,,,,,,,648.3255410619986,None,648.3255410619986,None,,,,,,,,,sub-10,08/08/2001,1: Male,21/10/2023,001,1: right,2023_Oct_21_0951,[FINAL]_fmri_multiplication,2021.2.3,59.93942701311696
block2.xlsx,,,,,,,,,,,,,,0,1,1,1,,,,,24,0,24,0,,,,,,,,,,,,,,,,,,,,,,,,,,,,,,,,,,,,,,649.323931,None,649.323931,None,,,,,,,,,sub-10,08/08/2001,1: Male,21/10/2023,001,1: right,2023_Oct_21_0951,[FINAL]_fmri_multiplication,2021.2.3,59.93942701311696
block2.xlsx,,,,,,,,,,,,,,0,1,1,1,,,,,25,0,25,0,,,,,,,,,,,,,,,,,,,,,,,,,,,,,,,,,,,,,,650.3256319259999,None,650.3256319259999,None,,,,,,,,,sub-10,08/08/2001,1: Male,21/10/2023,001,1: right,2023_Oct_21_0951,[FINAL]_fmri_multiplication,2021.2.3,59.93942701311696
block2.xlsx,,,,,,,,,,,,,,0,1,1,1,,,,,26,0,26,0,,,,,,,,,,,,,,,,,,,,,,,,,,,,,,,,,,,,,,651.3261678660001,None,651.3261678660001,None,,,,,,,,,sub-10,08/08/2001,1: Male,21/10/2023,001,1: right,2023_Oct_21_0951,[FINAL]_fmri_multiplication,2021.2.3,59.93942701311696
block2.xlsx,,,,,,,,,,,,,,0,1,1,1,,,,,27,0,27,0,,,,,,,,,,,,,,,,,,,,,,,,,,,,,,,,,,,,,,652.3256436840002,None,652.3256436840002,None,,,,,,,,,sub-10,08/08/2001,1: Male,21/10/2023,001,1: right,2023_Oct_21_0951,[FINAL]_fmri_multiplication,2021.2.3,59.93942701311696
block2.xlsx,,,,,,,,,,,,,,0,1,1,1,,,,,28,0,28,0,,,,,,,,,,,,,,,,,,,,,,,,,,,,,,,,,,,,,,653.3246004909997,None,653.3246004909997,None,,,,,,,,,sub-10,08/08/2001,1: Male,21/10/2023,001,1: right,2023_Oct_21_0951,[FINAL]_fmri_multiplication,2021.2.3,59.93942701311696
block2.xlsx,,,,,,,,,,,,,,0,1,1,1,,,,,29,0,29,0,,,,,,,,,,,,,,,,,,,,,,,,,,,,,,,,,,,,,,654.3257952269996,None,654.3257952269996,None,,,,,,,,,sub-10,08/08/2001,1: Male,21/10/2023,001,1: right,2023_Oct_21_0951,[FINAL]_fmri_multiplication,2021.2.3,59.93942701311696
block2.xlsx,,,,,,,,,,,,,,0,1,1,1,,,,,,,,,,,,,,,,,,,,,,,,,,,,,,,,,,,,,,,,,,,,,,,,,,,,,,,,,,sub-10,08/08/2001,1: Male,21/10/2023,001,1: right,2023_Oct_21_0951,[FINAL]_fmri_multiplication,2021.2.3,59.93942701311696
block3.xlsx,10,7.5,5.9,6 x 4,24,10,6 x 4 = 24,small-sized_high-interference,small-sized,high-interference,12,CorrectRESP,a,0,2,2,2,0,0,0,0,,,,,,,,,,,,,655.3249862889988,None,665.3487670019986,None,665.8246852,None,667.8249290479998,None,668.5749063579988,None,668.8249499079993,None,668.8249499079993,None,d,0,0.45676974299931317,668.8249499079993,None,669.3079059829997,None,669.3079059829997,None,d,0.18184156300048926,669.3079059829997,None,669.5082662819987,None,,,,,,,,,,,,,sub-10,08/08/2001,1: Male,21/10/2023,001,1: right,2023_Oct_21_0951,[FINAL]_fmri_multiplication,2021.2.3,59.93942701311696
block3.xlsx,23.4,7.5,2,6 x 6,30,13,6 x 6 = 30,large-sized_low-interference,large-sized,low-interference,4,IncorrectRESP,d,0,2,2,2,0,1,1,1,,,,,,,,,,,,,,,675.4080303689989,None,675.9082722969997,None,677.9084836809998,None,678.6585292269992,None,678.9082406830003,None,678.9082406830003,None,a,0,0.5414717559997371,678.9082406830003,None,679.4750366,None,679.4750366,None,d,0.31858985199869494,679.4750366,None,679.8254774910001,None,,,,,,,,,,,,,sub-10,08/08/2001,1: Male,21/10/2023,001,1: right,2023_Oct_21_0951,[FINAL]_fmri_multiplication,2021.2.3,59.93942701311696
block3.xlsx,32.9,7.5,3.2,2 x 9,18,2,2 x 9 = 18,small-sized_low-interference,small-sized,low-interference,7,CorrectRESP,a,0,2,2,2,0,2,2,2,,,,,,,,,,,,,,,681.8255276,None,682.3250925409993,None,684.3254018909993,None,685.0753506379988,None,685.3238898829986,None,685.3238898829986,None,d,0,0.4937313600003108,685.3238898829986,None,685.8415307509986,None,685.8415307509986,None,d,0.18411091000052693,685.8415307509986,None,686.0586413229994,None,,,,,,,,,,,,,sub-10,08/08/2001,1: Male,21/10/2023,001,1: right,2023_Oct_21_0951,[FINAL]_fmri_multiplication,2021.2.3,59.93942701311696
block3.xlsx,43.6,7.5,6,3 x 4,12,9,3 x 4 = 12,small-sized_high-interference,small-sized,high-interference,10,CorrectRESP,a,0,2,2,2,0,3,3,3,,,,,,,,,,,,,,,689.2582821489996,None,689.758029,None,691.7584351409987,None,692.5080020709993,None,692.7568906500001,None,692.7568906500001,None,d,0,0.5647975279989623,692.7568906500001,None,693.3412051249998,None,693.3412051249998,None,d,0.19645084500007215,693.3412051249998,None,693.5579437879987,None,,,,,,,,,,,,,sub-10,08/08/2001,1: Male,21/10/2023,001,1: right,2023_Oct_21_0951,[FINAL]_fmri_multiplication,2021.2.3,59.93942701311696
block3.xlsx,57.1,7.5,13.3,7 x 5,40,17,7 x 5 = 40,large-sized_low-interference,large-sized,low-interference,7,IncorrectRESP,d,0,2,2,2,0,4,4,4,,,,,,,,,,,,,,,699.5583589870002,None,700.0572580890002,None,702.0583216369996,None,702.8078393,None,703.0584465789998,None,703.0584465789998,None,a,0,0.5351681880001706,703.0584465789998,None,703.6248454910001,None,703.6248454910001,None,d,0.26494144,703.6248454910001,None,703.9077097429999,None,,,,,,,,,,,,,sub-10,08/08/2001,1: Male,21/10/2023,001,1: right,2023_Oct_21_0951,[FINAL]_fmri_multiplication,2021.2.3,59.93942701311696
block3.xlsx,77.9,7.5,2,8 x 7,56,22,8 x 7 = 56,large-sized_high-interference,large-sized,high-interference,9,CorrectRESP,a,0,2,2,2,0,5,5,5,,,,,,,,,,,,,,,717.2051750249993,None,717.7000092859998,None,719.7086717330003,None,720.4586398669999,None,720.7083427029993,None,720.7083427029993,None,d,0,0.5012937440005771,720.7083427029993,None,721.2418259269998,None,721.2418259269998,None,d,0.167812818,721.2418259269998,None,721.4418994049993,None,,,,,,,,,,,,,sub-10,08/08/2001,1: Male,21/10/2023,001,1: right,2023_Oct_21_0951,[FINAL]_fmri_multiplication,2021.2.3,59.93942701311696
block3.xlsx,87.4,7.5,2.6,9 x 9,81,16,9 x 9 = 81,large-sized_low-interference,large-sized,low-interference,6,CorrectRESP,a,0,2,2,2,0,6,6,6,,,,,,,,,,,,,,,723.4417195119986,None,723.9414864649989,None,725.9416413119998,None,726.6915466,None,726.9417343179994,None,726.9417343179994,None,d,0,0.4678898180009128,726.9417343179994,None,727.4414176819992,None,727.4414176819992,None,d,0.15220206099911593,727.4414176819992,None,727.6247783,None,,,,,,,,,,,,,sub-10,08/08/2001,1: Male,21/10/2023,001,1: right,2023_Oct_21_0951,[FINAL]_fmri_multiplication,2021.2.3,59.93942701311696
block3.xlsx,97.5,7.5,2.7,4 x 5,20,8,4 x 5 = 20,small-sized_high-interference,small-sized,high-interference,8,CorrectRESP,a,0,2,2,2,0,7,7,7,,,,,,,,,,,,,,,730.2250710890003,None,730.7243434840002,None,732.7249722739998,None,733.4747968880001,None,733.7251139379987,None,733.7251139379987,None,d,0,0.44454230800147343,733.7251139379987,None,734.1911702779998,None,734.1911702779998,None,d,0.16250009599934856,734.1911702779998,None,734.3741989,None,,,,,,,,,,,,,sub-10,08/08/2001,1: Male,21/10/2023,001,1: right,2023_Oct_21_0951,[FINAL]_fmri_multiplication,2021.2.3,59.93942701311696
block3.xlsx,107.7,7.5,8.4,9 x 3,24,19,9 x 3 = 24,large-sized_high-interference,large-sized,high-interference,9,IncorrectRESP,d,0,2,2,2,0,8,8,8,,,,,,,,,,,,,,,737.074944,None,737.574898,None,739.5749886479989,None,740.3249908749985,None,740.5750634729993,None,740.5750634729993,None,a,0,0.5865555529999256,740.5750634729993,None,741.1913332280001,None,741.1913332280001,None,d,0.2583871749993705,741.1913332280001,None,741.4746353149985,None,,,,,,,,,,,,,sub-10,08/08/2001,1: Male,21/10/2023,001,1: right,2023_Oct_21_0951,[FINAL]_fmri_multiplication,2021.2.3,59.93942701311696
block3.xlsx,123.6,7.5,2.2,9 x 5,45,15,9 x 5 = 45,large-sized_low-interference,large-sized,low-interference,6,CorrectRESP,a,0,2,2,2,0,9,9,9,,,,,,,,,,,,,,,749.8784321719995,None,750.3764122719986,None,752.3920035499996,None,753.1420914419996,None,753.3915373740001,None,753.3915373740001,None,d,0,0.49814776399944094,753.3915373740001,None,753.9081755719999,None,753.9081755719999,None,d,0.17354997400070715,753.9081755719999,None,754.1085453719988,None,,,,,,,,,,,,,sub-10,08/08/2001,1: Male,21/10/2023,001,1: right,2023_Oct_21_0951,[FINAL]_fmri_multiplication,2021.2.3,59.93942701311696
block3.xlsx,133.3,7.5,9.7,4 x 4,16,4,4 x 4 = 16,small-sized_low-interference,small-sized,low-interference,5,CorrectRESP,a,0,2,2,2,0,10,10,10,,,,,,,,,,,,,,,756.3082590719987,None,756.8085632820003,None,758.8085251969987,None,759.5587550319997,None,759.8068203769999,None,759.8068203769999,None,d,0,0.50685799,759.8068203769999,None,760.3411309450003,None,760.3411309450003,None,d,0.16458917499949166,760.3411309450003,None,760.5243953279987,None,,,,,,,,,,,,,sub-10,08/08/2001,1: Male,21/10/2023,001,1: right,2023_Oct_21_0951,[FINAL]_fmri_multiplication,2021.2.3,59.93942701311696
block3.xlsx,150.5,7.5,5.4,8 x 4,28,24,8 x 4 = 28,large-sized_high-interference,large-sized,high-interference,25,IncorrectRESP,d,0,2,2,2,0,11,11,11,,,,,,,,,,,,,,,770.2249684130002,None,770.7248730800002,None,772.7248842699992,None,773.4747205549993,None,773.7251879199994,None,773.7251879199994,None,a,0,0.5404927699983091,773.7251879199994,None,774.2911200559993,None,774.2911200559993,None,d,0.26252475600085745,774.2911200559993,None,774.5745828500003,None,,,,,,,,,,,,,sub-10,08/08/2001,1: Male,21/10/2023,001,1: right,2023_Oct_21_0951,[FINAL]_fmri_multiplication,2021.2.3,59.93942701311696
block3.xlsx,163.4,7.5,10.5,8 x 2,18,5,8 x 2 = 18,small-sized_low-interference,small-sized,low-interference,7,IncorrectRESP,d,0,2,2,2,0,12,12,12,,,,,,,,,,,,,,,779.9750827999997,None,780.4746981999997,None,782.4750478719998,None,783.2250149,None,783.4749887039998,None,783.4749887039998,None,a,0,0.5426361999998335,783.4749887039998,None,784.0414937810001,None,784.0414937810001,None,d,0.23224079600004188,784.0414937810001,None,784.2913709,None,,,,,,,,,,,,,sub-10,08/08/2001,1: Male,21/10/2023,001,1: right,2023_Oct_21_0951,[FINAL]_fmri_multiplication,2021.2.3,59.93942701311696
block3.xlsx,181.4,7.5,3.5,7 x 6,48,23,7 x 6 = 48,large-sized_high-interference,large-sized,high-interference,22,IncorrectRESP,d,0,2,2,2,0,13,13,13,,,,,,,,,,,,,,,794.7921677129998,None,795.2916851,None,797.2914573119997,None,798.0416304089995,None,798.2915075719993,None,798.2915075719993,None,a,0,0.558212337,798.2915075719993,None,798.8743489399985,None,798.8743489399985,None,d,0.22337528199932422,798.8743489399985,None,799.1249846579994,None,,,,,,,,,,,,,sub-10,08/08/2001,1: Male,21/10/2023,001,1: right,2023_Oct_21_0951,[FINAL]_fmri_multiplication,2021.2.3,59.93942701311696
block3.xlsx,192.4,7.5,11.8,5 x 6,30,14,5 x 6 = 30,large-sized_low-interference,large-sized,low-interference,6,CorrectRESP,a,0,2,2,2,0,14,14,14,,,,,,,,,,,,,,,802.6249369299985,None,803.1248449499999,None,805.1250364649986,None,805.8749690349996,None,806.1248895249992,None,806.1248895249992,None,d,0,0.4927584670003853,806.1248895249992,None,806.6411742569999,None,806.6411742569999,None,d,0.17648786199970345,806.6411742569999,None,806.8411984249997,None,,,,,,,,,,,,,sub-10,08/08/2001,1: Male,21/10/2023,001,1: right,2023_Oct_21_0951,[FINAL]_fmri_multiplication,2021.2.3,59.93942701311696
block3.xlsx,211.7,7.5,3.7,4 x 9,36,20,4 x 9 = 36,large-sized_high-interference,large-sized,high-interference,9,CorrectRESP,a,0,2,2,2,0,15,15,15,,,,,,,,,,,,,,,818.6418605159997,None,819.1418064099998,None,821.1419709239999,None,821.8918589360001,None,822.1419687299986,None,822.1419687299986,None,d,0,0.5157621380003548,822.1419687299986,None,822.6752630379997,None,822.6752630379997,None,d,0.18253388499942957,822.6752630379997,None,822.8745319359987,None,,,,,,,,,,,,,sub-10,08/08/2001,1: Male,21/10/2023,001,1: right,2023_Oct_21_0951,[FINAL]_fmri_multiplication,2021.2.3,59.93942701311696
block3.xlsx,222.9,7.5,2.5,7 x 7,56,18,7 x 7 = 56,large-sized_low-interference,large-sized,low-interference,7,IncorrectRESP,d,0,2,2,2,0,16,16,16,,,,,,,,,,,,,,,826.5753056409994,None,827.0750213569991,None,829.0751406149993,None,829.8246557549992,None,830.0744583129999,None,830.0744583129999,None,a,0,0.5432011059983779,830.0744583129999,None,830.6411207040001,None,830.6411207040001,None,d,0.22460769600002095,830.6411207040001,None,830.8913656570003,None,,,,,,,,,,,,,sub-10,08/08/2001,1: Male,21/10/2023,001,1: right,2023_Oct_21_0951,[FINAL]_fmri_multiplication,2021.2.3,59.93942701311696
block3.xlsx,232.9,7.5,9,6 x 3,15,7,6 x 3 = 15,small-sized_high-interference,small-sized,high-interference,8,IncorrectRESP,d,0,2,2,2,0,17,17,17,,,,,,,,,,,,,,,833.3913791670002,None,833.891774,None,835.8916837839988,None,836.6416455620001,None,836.8915160219985,None,836.8915160219985,None,a,0,0.5181171269996412,836.8915160219985,None,837.4415871889996,None,837.4415871889996,None,d,0.21617230199990445,837.4415871889996,None,837.6745203789997,None,,,,,,,,,,,,,sub-10,08/08/2001,1: Male,21/10/2023,001,1: right,2023_Oct_21_0951,[FINAL]_fmri_multiplication,2021.2.3,59.93942701311696
block3.xlsx,249.4,7.5,9.5,7 x 2,12,1,7 x 2 = 12,small-sized_low-interference,small-sized,low-interference,4,IncorrectRESP,d,0,2,2,2,0,18,18,18,,,,,,,,,,,,,,,846.674906,None,847.1748948309996,None,849.1747763149997,None,849.9250320350002,None,850.1750519509987,None,850.1750519509987,None,a,0,0.4905503800000588,850.1750519509987,None,850.6902215,None,850.6902215,None,d,0.23941361099969072,850.6902215,None,850.9583328769986,None,,,,,,,,,,,,,sub-10,08/08/2001,1: Male,21/10/2023,001,1: right,2023_Oct_21_0951,[FINAL]_fmri_multiplication,2021.2.3,59.93942701311696
block3.xlsx,266.4,7.5,11.1,5 x 8,40,21,5 x 8 = 40,large-sized_high-interference,large-sized,high-interference,9,CorrectRESP,a,0,2,2,2,0,19,19,19,,,,,,,,,,,,,,,860.4585379,None,860.9583081759993,None,862.9588109119995,None,863.7089936899993,None,863.9577593159993,None,863.9577593159993,None,d,0,0.4838667139993049,863.9577593159993,None,864.4581674269994,None,864.4581674269994,None,d,0.20748495000043476,864.4581674269994,None,864.6915745189999,None,,,,,,,,,,,,,sub-10,08/08/2001,1: Male,21/10/2023,001,1: right,2023_Oct_21_0951,[FINAL]_fmri_multiplication,2021.2.3,59.93942701311696
block3.xlsx,285,7.5,3.8,3 x 8,21,12,3 x 8 = 21,small-sized_high-interference,small-sized,high-interference,13,IncorrectRESP,d,0,2,2,2,0,20,20,20,,,,,,,,,,,,,,,875.7916597530002,None,876.2910981,None,878.2913777129997,None,879.0415501899988,None,879.2914158,None,879.2914158,None,a,0,0.7182289789998322,879.2914158,None,880.0416329700001,None,880.0416329700001,None,d,0.23216676299853134,880.0416329700001,None,880.2908903440002,None,,,,,,,,,,,,,sub-10,08/08/2001,1: Male,21/10/2023,001,1: right,2023_Oct_21_0951,[FINAL]_fmri_multiplication,2021.2.3,59.93942701311696
block3.xlsx,296.3,7.5,11.2,5 x 5,25,3,5 x 5 = 25,small-sized_low-interference,small-sized,low-interference,3,CorrectRESP,a,0,2,2,2,0,21,21,21,,,,,,,,,,,,,,,884.1069908190002,None,884.6084966879989,None,886.6083923440001,None,887.3583979739997,None,887.6082770639987,None,887.6082770639987,None,d,0,0.3933653719996073,887.6082770639987,None,888.0247049539994,None,888.0247049539994,None,d,0.1610591980006575,888.0247049539994,None,888.2079958919985,None,,,,,,,,,,,,,sub-10,08/08/2001,1: Male,21/10/2023,001,1: right,2023_Oct_21_0951,[FINAL]_fmri_multiplication,2021.2.3,59.93942701311696
block3.xlsx,315,7.5,2.6,7 x 3,24,11,7 x 3 = 24,small-sized_high-interference,small-sized,high-interference,13,IncorrectRESP,d,0,2,2,2,0,22,22,22,,,,,,,,,,,,,,,899.4052760599989,None,899.9081869410002,None,901.9080671419997,None,902.6583803289996,None,902.9082350089993,None,902.9082350089993,None,a,0,0.4374901549999777,902.9082350089993,None,903.3737360499999,None,903.3737360499999,None,d,0.2517920509999385,903.3737360499999,None,903.6583367289986,None,,,,,,,,,,,,,sub-10,08/08/2001,1: Male,21/10/2023,001,1: right,2023_Oct_21_0951,[FINAL]_fmri_multiplication,2021.2.3,59.93942701311696
block3.xlsx,325.1,7.5,2.4,6 x 2,10,6,6 x 2 = 10,small-sized_low-interference,small-sized,low-interference,3,IncorrectRESP,d,0,2,2,2,0,23,23,23,,,,,,,,,,,,,,,906.2582572259998,None,906.7580468300002,None,908.7578222,None,909.5083655419985,None,909.7586226149997,None,909.7586226149997,None,a,0,0.5710008320002089,909.7586226149997,None,910.3579800919997,None,910.3579800919997,None,d,0.2837207180000405,910.3579800919997,None,910.6582586570003,None,,,,,,,,,,,,,sub-10,08/08/2001,1: Male,21/10/2023,001,1: right,2023_Oct_21_0951,[FINAL]_fmri_multiplication,2021.2.3,59.93942701311696
block3.xlsx,,,,,,,,,,,,,,0,2,2,2,,,,,0,0,0,0,,,,,,,,,,,,,,,,,,,,,,,,,,,,,,,,,,,,,,913.0604321,None,913.0604321,None,,,,,,,,,sub-10,08/08/2001,1: Male,21/10/2023,001,1: right,2023_Oct_21_0951,[FINAL]_fmri_multiplication,2021.2.3,59.93942701311696
block3.xlsx,,,,,,,,,,,,,,0,2,2,2,,,,,1,0,1,0,,,,,,,,,,,,,,,,,,,,,,,,,,,,,,,,,,,,,,914.0749725529986,None,914.0749725529986,None,,,,,,,,,sub-10,08/08/2001,1: Male,21/10/2023,001,1: right,2023_Oct_21_0951,[FINAL]_fmri_multiplication,2021.2.3,59.93942701311696
block3.xlsx,,,,,,,,,,,,,,0,2,2,2,,,,,2,0,2,0,,,,,,,,,,,,,,,,,,,,,,,,,,,,,,,,,,,,,,915.0751313189994,None,915.0751313189994,None,,,,,,,,,sub-10,08/08/2001,1: Male,21/10/2023,001,1: right,2023_Oct_21_0951,[FINAL]_fmri_multiplication,2021.2.3,59.93942701311696
block3.xlsx,,,,,,,,,,,,,,0,2,2,2,,,,,3,0,3,0,,,,,,,,,,,,,,,,,,,,,,,,,,,,,,,,,,,,,,916.0761900769994,None,916.0761900769994,None,,,,,,,,,sub-10,08/08/2001,1: Male,21/10/2023,001,1: right,2023_Oct_21_0951,[FINAL]_fmri_multiplication,2021.2.3,59.93942701311696
block3.xlsx,,,,,,,,,,,,,,0,2,2,2,,,,,4,0,4,0,,,,,,,,,,,,,,,,,,,,,,,,,,,,,,,,,,,,,,917.0760053710001,None,917.0760053710001,None,,,,,,,,,sub-10,08/08/2001,1: Male,21/10/2023,001,1: right,2023_Oct_21_0951,[FINAL]_fmri_multiplication,2021.2.3,59.93942701311696
block3.xlsx,,,,,,,,,,,,,,0,2,2,2,,,,,5,0,5,0,,,,,,,,,,,,,,,,,,,,,,,,,,,,,,,,,,,,,,918.0770213,None,918.0770213,None,,,,,,,,,sub-10,08/08/2001,1: Male,21/10/2023,001,1: right,2023_Oct_21_0951,[FINAL]_fmri_multiplication,2021.2.3,59.93942701311696
block3.xlsx,,,,,,,,,,,,,,0,2,2,2,,,,,6,0,6,0,,,,,,,,,,,,,,,,,,,,,,,,,,,,,,,,,,,,,,919.0762025940003,None,919.0762025940003,None,,,,,,,,,sub-10,08/08/2001,1: Male,21/10/2023,001,1: right,2023_Oct_21_0951,[FINAL]_fmri_multiplication,2021.2.3,59.93942701311696
block3.xlsx,,,,,,,,,,,,,,0,2,2,2,,,,,7,0,7,0,,,,,,,,,,,,,,,,,,,,,,,,,,,,,,,,,,,,,,920.0760695,None,920.0760695,None,,,,,,,,,sub-10,08/08/2001,1: Male,21/10/2023,001,1: right,2023_Oct_21_0951,[FINAL]_fmri_multiplication,2021.2.3,59.93942701311696
block3.xlsx,,,,,,,,,,,,,,0,2,2,2,,,,,8,0,8,0,,,,,,,,,,,,,,,,,,,,,,,,,,,,,,,,,,,,,,921.0775170809993,None,921.0775170809993,None,,,,,,,,,sub-10,08/08/2001,1: Male,21/10/2023,001,1: right,2023_Oct_21_0951,[FINAL]_fmri_multiplication,2021.2.3,59.93942701311696
block3.xlsx,,,,,,,,,,,,,,0,2,2,2,,,,,9,0,9,0,,,,,,,,,,,,,,,,,,,,,,,,,,,,,,,,,,,,,,922.0754024159996,None,922.0754024159996,None,,,,,,,,,sub-10,08/08/2001,1: Male,21/10/2023,001,1: right,2023_Oct_21_0951,[FINAL]_fmri_multiplication,2021.2.3,59.93942701311696
block3.xlsx,,,,,,,,,,,,,,0,2,2,2,,,,,10,0,10,0,,,,,,,,,,,,,,,,,,,,,,,,,,,,,,,,,,,,,,923.0752326909987,None,923.0752326909987,None,,,,,,,,,sub-10,08/08/2001,1: Male,21/10/2023,001,1: right,2023_Oct_21_0951,[FINAL]_fmri_multiplication,2021.2.3,59.93942701311696
block3.xlsx,,,,,,,,,,,,,,0,2,2,2,,,,,11,0,11,0,,,,,,,,,,,,,,,,,,,,,,,,,,,,,,,,,,,,,,924.0770903140001,None,924.0770903140001,None,,,,,,,,,sub-10,08/08/2001,1: Male,21/10/2023,001,1: right,2023_Oct_21_0951,[FINAL]_fmri_multiplication,2021.2.3,59.93942701311696
block3.xlsx,,,,,,,,,,,,,,0,2,2,2,,,,,12,0,12,0,,,,,,,,,,,,,,,,,,,,,,,,,,,,,,,,,,,,,,925.0770796209999,None,925.0770796209999,None,,,,,,,,,sub-10,08/08/2001,1: Male,21/10/2023,001,1: right,2023_Oct_21_0951,[FINAL]_fmri_multiplication,2021.2.3,59.93942701311696
block3.xlsx,,,,,,,,,,,,,,0,2,2,2,,,,,13,0,13,0,,,,,,,,,,,,,,,,,,,,,,,,,,,,,,,,,,,,,,926.0762875780001,None,926.0762875780001,None,,,,,,,,,sub-10,08/08/2001,1: Male,21/10/2023,001,1: right,2023_Oct_21_0951,[FINAL]_fmri_multiplication,2021.2.3,59.93942701311696
block3.xlsx,,,,,,,,,,,,,,0,2,2,2,,,,,14,0,14,0,,,,,,,,,,,,,,,,,,,,,,,,,,,,,,,,,,,,,,927.0776576,None,927.0776576,None,,,,,,,,,sub-10,08/08/2001,1: Male,21/10/2023,001,1: right,2023_Oct_21_0951,[FINAL]_fmri_multiplication,2021.2.3,59.93942701311696
block3.xlsx,,,,,,,,,,,,,,0,2,2,2,,,,,15,0,15,0,,,,,,,,,,,,,,,,,,,,,,,,,,,,,,,,,,,,,,928.0755816,None,928.0755816,None,,,,,,,,,sub-10,08/08/2001,1: Male,21/10/2023,001,1: right,2023_Oct_21_0951,[FINAL]_fmri_multiplication,2021.2.3,59.93942701311696
block3.xlsx,,,,,,,,,,,,,,0,2,2,2,,,,,16,0,16,0,,,,,,,,,,,,,,,,,,,,,,,,,,,,,,,,,,,,,,929.0752059030001,None,929.0752059030001,None,,,,,,,,,sub-10,08/08/2001,1: Male,21/10/2023,001,1: right,2023_Oct_21_0951,[FINAL]_fmri_multiplication,2021.2.3,59.93942701311696
block3.xlsx,,,,,,,,,,,,,,0,2,2,2,,,,,17,0,17,0,,,,,,,,,,,,,,,,,,,,,,,,,,,,,,,,,,,,,,930.0748122299992,None,930.0748122299992,None,,,,,,,,,sub-10,08/08/2001,1: Male,21/10/2023,001,1: right,2023_Oct_21_0951,[FINAL]_fmri_multiplication,2021.2.3,59.93942701311696
block3.xlsx,,,,,,,,,,,,,,0,2,2,2,,,,,18,0,18,0,,,,,,,,,,,,,,,,,,,,,,,,,,,,,,,,,,,,,,931.077785,None,931.077785,None,,,,,,,,,sub-10,08/08/2001,1: Male,21/10/2023,001,1: right,2023_Oct_21_0951,[FINAL]_fmri_multiplication,2021.2.3,59.93942701311696
block3.xlsx,,,,,,,,,,,,,,0,2,2,2,,,,,19,0,19,0,,,,,,,,,,,,,,,,,,,,,,,,,,,,,,,,,,,,,,932.0762715299988,None,932.0762715299988,None,,,,,,,,,sub-10,08/08/2001,1: Male,21/10/2023,001,1: right,2023_Oct_21_0951,[FINAL]_fmri_multiplication,2021.2.3,59.93942701311696
block3.xlsx,,,,,,,,,,,,,,0,2,2,2,,,,,20,0,20,0,,,,,,,,,,,,,,,,,,,,,,,,,,,,,,,,,,,,,,933.0780251179985,None,933.0780251179985,None,,,,,,,,,sub-10,08/08/2001,1: Male,21/10/2023,001,1: right,2023_Oct_21_0951,[FINAL]_fmri_multiplication,2021.2.3,59.93942701311696
block3.xlsx,,,,,,,,,,,,,,0,2,2,2,,,,,21,0,21,0,,,,,,,,,,,,,,,,,,,,,,,,,,,,,,,,,,,,,,934.0748480539987,None,934.0748480539987,None,,,,,,,,,sub-10,08/08/2001,1: Male,21/10/2023,001,1: right,2023_Oct_21_0951,[FINAL]_fmri_multiplication,2021.2.3,59.93942701311696
block3.xlsx,,,,,,,,,,,,,,0,2,2,2,,,,,22,0,22,0,,,,,,,,,,,,,,,,,,,,,,,,,,,,,,,,,,,,,,935.0744667,None,935.0744667,None,,,,,,,,,sub-10,08/08/2001,1: Male,21/10/2023,001,1: right,2023_Oct_21_0951,[FINAL]_fmri_multiplication,2021.2.3,59.93942701311696
block3.xlsx,,,,,,,,,,,,,,0,2,2,2,,,,,23,0,23,0,,,,,,,,,,,,,,,,,,,,,,,,,,,,,,,,,,,,,,936.0745101209995,None,936.0745101209995,None,,,,,,,,,sub-10,08/08/2001,1: Male,21/10/2023,001,1: right,2023_Oct_21_0951,[FINAL]_fmri_multiplication,2021.2.3,59.93942701311696
block3.xlsx,,,,,,,,,,,,,,0,2,2,2,,,,,24,0,24,0,,,,,,,,,,,,,,,,,,,,,,,,,,,,,,,,,,,,,,937.0748294289988,None,937.0748294289988,None,,,,,,,,,sub-10,08/08/2001,1: Male,21/10/2023,001,1: right,2023_Oct_21_0951,[FINAL]_fmri_multiplication,2021.2.3,59.93942701311696
block3.xlsx,,,,,,,,,,,,,,0,2,2,2,,,,,25,0,25,0,,,,,,,,,,,,,,,,,,,,,,,,,,,,,,,,,,,,,,938.0747283700002,None,938.0747283700002,None,,,,,,,,,sub-10,08/08/2001,1: Male,21/10/2023,001,1: right,2023_Oct_21_0951,[FINAL]_fmri_multiplication,2021.2.3,59.93942701311696
block3.xlsx,,,,,,,,,,,,,,0,2,2,2,,,,,26,0,26,0,,,,,,,,,,,,,,,,,,,,,,,,,,,,,,,,,,,,,,939.0746162029991,None,939.0746162029991,None,,,,,,,,,sub-10,08/08/2001,1: Male,21/10/2023,001,1: right,2023_Oct_21_0951,[FINAL]_fmri_multiplication,2021.2.3,59.93942701311696
block3.xlsx,,,,,,,,,,,,,,0,2,2,2,,,,,27,0,27,0,,,,,,,,,,,,,,,,,,,,,,,,,,,,,,,,,,,,,,940.0748173869997,None,940.0748173869997,None,,,,,,,,,sub-10,08/08/2001,1: Male,21/10/2023,001,1: right,2023_Oct_21_0951,[FINAL]_fmri_multiplication,2021.2.3,59.93942701311696
block3.xlsx,,,,,,,,,,,,,,0,2,2,2,,,,,28,0,28,0,,,,,,,,,,,,,,,,,,,,,,,,,,,,,,,,,,,,,,941.0747098209995,None,941.0747098209995,None,,,,,,,,,sub-10,08/08/2001,1: Male,21/10/2023,001,1: right,2023_Oct_21_0951,[FINAL]_fmri_multiplication,2021.2.3,59.93942701311696
block3.xlsx,,,,,,,,,,,,,,0,2,2,2,,,,,29,0,29,0,,,,,,,,,,,,,,,,,,,,,,,,,,,,,,,,,,,,,,942.0750406819989,None,942.0750406819989,None,,,,,,,,,sub-10,08/08/2001,1: Male,21/10/2023,001,1: right,2023_Oct_21_0951,[FINAL]_fmri_multiplication,2021.2.3,59.93942701311696
block3.xlsx,,,,,,,,,,,,,,0,2,2,2,,,,,,,,,,,,,,,,,,,,,,,,,,,,,,,,,,,,,,,,,,,,,,,,,,,,,,,,,,sub-10,08/08/2001,1: Male,21/10/2023,001,1: right,2023_Oct_21_0951,[FINAL]_fmri_multiplication,2021.2.3,59.93942701311696
block4.xlsx,10,7.5,8.4,5 x 6,36,14,5 x 6 = 36,large-sized_low-interference,large-sized,low-interference,6,IncorrectRESP,d,0,3,3,3,0,0,0,0,,,,,,,,,,,,,943.0763364969989,None,953.0984151599987,None,953.5745066929994,None,955.5750204380001,None,956.3250294509999,None,956.5748491859995,None,956.5748491859995,None,a,0,0.46676825300164637,956.5748491859995,None,957.0587856410002,None,957.0587856410002,None,d,0.28690591499980655,957.0587856410002,None,957.3741869639998,None,,,,,,,,,,,,,sub-10,08/08/2001,1: Male,21/10/2023,001,1: right,2023_Oct_21_0951,[FINAL]_fmri_multiplication,2021.2.3,59.93942701311696
block4.xlsx,25.9,7.5,2.6,6 x 2,12,6,6 x 2 = 12,small-sized_low-interference,small-sized,low-interference,3,CorrectRESP,a,0,3,3,3,0,1,1,1,,,,,,,,,,,,,,,965.7753665519995,None,966.2742604029991,None,968.275342,None,969.0254612319986,None,969.2749346620003,None,969.2749346620003,None,d,0,0.5427077839995036,969.2749346620003,None,969.8411747519986,None,969.8411747519986,None,d,0.17650285700074164,969.8411747519986,None,970.0417236159992,None,,,,,,,,,,,,,sub-10,08/08/2001,1: Male,21/10/2023,001,1: right,2023_Oct_21_0951,[FINAL]_fmri_multiplication,2021.2.3,59.93942701311696
block4.xlsx,36,7.5,3.8,8 x 4,32,24,8 x 4 = 32,large-sized_high-interference,large-sized,high-interference,25,CorrectRESP,a,0,3,3,3,0,2,2,2,,,,,,,,,,,,,,,972.6414860759996,None,973.1414748,None,975.1416139439989,None,975.8912445139995,None,976.1413109189998,None,976.1413109189998,None,d,0,0.6363052369997604,976.1413109189998,None,976.8078869,None,976.8078869,None,d,0.1617812659987976,976.8078869,None,976.9912041719999,None,,,,,,,,,,,,,sub-10,08/08/2001,1: Male,21/10/2023,001,1: right,2023_Oct_21_0951,[FINAL]_fmri_multiplication,2021.2.3,59.93942701311696
block4.xlsx,47.3,7.5,3.8,9 x 5,40,15,9 x 5 = 40,large-sized_low-interference,large-sized,low-interference,6,IncorrectRESP,d,0,3,3,3,0,3,3,3,,,,,,,,,,,,,,,980.7917421,None,981.2913878189993,None,983.2916396279998,None,984.0415902929999,None,984.2914084,None,984.2914084,None,a,0,0.48621113499939383,984.2914084,None,984.8077764,None,984.8077764,None,d,0.24193929200009734,984.8077764,None,985.0746809020002,None,,,,,,,,,,,,,sub-10,08/08/2001,1: Male,21/10/2023,001,1: right,2023_Oct_21_0951,[FINAL]_fmri_multiplication,2021.2.3,59.93942701311696
block4.xlsx,58.6,7.5,4.4,6 x 3,18,7,6 x 3 = 18,small-sized_high-interference,small-sized,high-interference,8,CorrectRESP,a,0,3,3,3,0,4,4,4,,,,,,,,,,,,,,,988.8749375719999,None,989.3744072199988,None,991.3750055599994,None,992.1250122839992,None,992.3748468,None,992.3748468,None,d,0,0.48288886599948455,992.3748468,None,992.8742325099993,None,992.8742325099993,None,d,0.18353081099849078,992.8742325099993,None,993.0747055899992,None,,,,,,,,,,,,,sub-10,08/08/2001,1: Male,21/10/2023,001,1: right,2023_Oct_21_0951,[FINAL]_fmri_multiplication,2021.2.3,59.93942701311696
block4.xlsx,70.5,7.5,2.6,4 x 9,32,20,4 x 9 = 32,large-sized_high-interference,large-sized,high-interference,9,IncorrectRESP,d,0,3,3,3,0,5,5,5,,,,,,,,,,,,,,,997.4721166979998,None,997.9673566649999,None,999.9753194189998,None,1000.7252545329993,None,1000.9751935989989,None,1000.9751935989989,None,a,0,0.5225467199998093,1000.9751935989989,None,1001.5247325729997,None,1001.5247325729997,None,d,0.1969846799984225,1001.5247325729997,None,1001.7415186170001,None,,,,,,,,,,,,,sub-10,08/08/2001,1: Male,21/10/2023,001,1: right,2023_Oct_21_0951,[FINAL]_fmri_multiplication,2021.2.3,59.93942701311696
block4.xlsx,80.6,7.5,9.4,3 x 4,15,9,3 x 4 = 15,small-sized_high-interference,small-sized,high-interference,10,IncorrectRESP,d,0,3,3,3,0,6,6,6,,,,,,,,,,,,,,,1004.3416833459996,None,1004.8401550259987,None,1006.8417347779996,None,1007.5915962279996,None,1007.8414508459991,None,1007.8414508459991,None,a,0,0.5681694209997659,1007.8414508459991,None,1008.441536115999,None,1008.441536115999,None,d,0.17612005800037878,1008.441536115999,None,1008.6416785099991,None,,,,,,,,,,,,,sub-10,08/08/2001,1: Male,21/10/2023,001,1: right,2023_Oct_21_0951,[FINAL]_fmri_multiplication,2021.2.3,59.93942701311696
block4.xlsx,97.5,7.5,6,6 x 6,36,13,6 x 6 = 36,large-sized_low-interference,large-sized,low-interference,4,CorrectRESP,a,0,3,3,3,0,7,7,7,,,,,,,,,,,,,,,1018.04166,None,1018.5415252699986,None,1020.5416158890002,None,1021.2916926119997,None,1021.5417153769995,None,1021.5417153769995,None,d,0,0.459923364,1021.5417153769995,None,1022.0245026209996,None,1022.0245026209996,None,d,0.16911289999916335,1022.0245026209996,None,1022.224685240999,None,,,,,,,,,,,,,sub-10,08/08/2001,1: Male,21/10/2023,001,1: right,2023_Oct_21_0951,[FINAL]_fmri_multiplication,2021.2.3,59.93942701311696
block4.xlsx,111,7.5,5.8,7 x 6,42,23,7 x 6 = 42,large-sized_high-interference,large-sized,high-interference,22,CorrectRESP,a,0,3,3,3,0,8,8,8,,,,,,,,,,,,,,,1028.2250105860003,None,1028.7246825009988,None,1030.727724377999,None,1031.471417,None,1031.7167866379987,None,1031.7167866379987,None,d,0,0.42088470099952247,1031.7167866379987,None,1032.158168005999,None,1032.158168005999,None,d,0.1795101509997039,1032.158168005999,None,1032.358295,None,,,,,,,,,,,,,sub-10,08/08/2001,1: Male,21/10/2023,001,1: right,2023_Oct_21_0951,[FINAL]_fmri_multiplication,2021.2.3,59.93942701311696
block4.xlsx,124.3,7.5,3.6,6 x 4,28,10,6 x 4 = 28,small-sized_high-interference,small-sized,high-interference,12,IncorrectRESP,d,0,3,3,3,0,9,9,9,,,,,,,,,,,,,,,1038.1588390179986,None,1038.6582684629993,None,1040.6582617080003,None,1041.408412155999,None,1041.6580931600001,None,1041.6580931600001,None,a,0,0.5115259029989829,1041.6580931600001,None,1042.1896580470002,None,1042.1896580470002,None,d,0.21176003299842705,1042.1896580470002,None,1042.424566,None,,,,,,,,,,,,,sub-10,08/08/2001,1: Male,21/10/2023,001,1: right,2023_Oct_21_0951,[FINAL]_fmri_multiplication,2021.2.3,59.93942701311696
block4.xlsx,135.4,7.5,9.3,5 x 5,30,3,5 x 5 = 30,small-sized_low-interference,small-sized,low-interference,3,IncorrectRESP,d,0,3,3,3,0,10,10,10,,,,,,,,,,,,,,,1046.0250087489985,None,1046.5245106349994,None,1048.524994,None,1049.2749289570002,None,1049.5247935939988,None,1049.5247935939988,None,a,0,0.50894712,1049.5247935939988,None,1050.0578243219989,None,1050.0578243219989,None,d,0.1918896550014324,1050.0578243219989,None,1050.2747073669998,None,,,,,,,,,,,,,sub-10,08/08/2001,1: Male,21/10/2023,001,1: right,2023_Oct_21_0951,[FINAL]_fmri_multiplication,2021.2.3,59.93942701311696
block4.xlsx,152.2,7.5,9.8,7 x 3,21,11,7 x 3 = 21,small-sized_high-interference,small-sized,high-interference,13,CorrectRESP,a,0,3,3,3,0,11,11,11,,,,,,,,,,,,,,,1059.5749286640003,None,1060.0753243259987,None,1062.0747671509998,None,1062.825107,None,1063.0750433880003,None,1063.0750433880003,None,d,0,0.542580387,1063.0750433880003,None,1063.6414199109986,None,1063.6414199109986,None,d,0.18421834699984174,1063.6414199109986,None,1063.8583970649997,None,,,,,,,,,,,,,sub-10,08/08/2001,1: Male,21/10/2023,001,1: right,2023_Oct_21_0951,[FINAL]_fmri_multiplication,2021.2.3,59.93942701311696
block4.xlsx,169.5,7.5,12.8,9 x 9,72,16,9 x 9 = 72,large-sized_low-interference,large-sized,low-interference,6,IncorrectRESP,d,0,3,3,3,0,12,12,12,,,,,,,,,,,,,,,1073.6585852319986,None,1074.158598689999,None,1076.1583476029991,None,1076.9084082929985,None,1077.1585522320001,None,1077.1585522320001,None,a,0,0.5312196649992984,1077.1585522320001,None,1077.707931175999,None,1077.707931175999,None,d,0.21377435300018988,1077.707931175999,None,1077.9410646029992,None,,,,,,,,,,,,,sub-10,08/08/2001,1: Male,21/10/2023,001,1: right,2023_Oct_21_0951,[FINAL]_fmri_multiplication,2021.2.3,59.93942701311696
block4.xlsx,189.8,7.5,8.9,4 x 4,20,4,4 x 4 = 20,small-sized_low-interference,small-sized,low-interference,5,IncorrectRESP,d,0,3,3,3,0,13,13,13,,,,,,,,,,,,,,,1090.7411638579997,None,1091.2414171909986,None,1093.2416150699992,None,1093.991635,None,1094.241709,None,1094.241709,None,a,0,0.4399308519987244,1094.241709,None,1094.7076403709998,None,1094.7076403709998,None,d,0.23006422499929613,1094.7076403709998,None,1094.9578763419995,None,,,,,,,,,,,,,sub-10,08/08/2001,1: Male,21/10/2023,001,1: right,2023_Oct_21_0951,[FINAL]_fmri_multiplication,2021.2.3,59.93942701311696
block4.xlsx,206.2,7.5,2.4,5 x 8,45,21,5 x 8 = 45,large-sized_high-interference,large-sized,high-interference,9,IncorrectRESP,d,0,3,3,3,0,14,14,14,,,,,,,,,,,,,,,1103.8557244019994,None,1104.3507208069987,None,1106.358635,None,1107.108651,None,1107.3589533989998,None,1107.3589533989998,None,a,0,0.48288389000117604,1107.3589533989998,None,1107.8586489769987,None,1107.8586489769987,None,d,0.2230827120001777,1107.8586489769987,None,1108.107962046999,None,,,,,,,,,,,,,sub-10,08/08/2001,1: Male,21/10/2023,001,1: right,2023_Oct_21_0951,[FINAL]_fmri_multiplication,2021.2.3,59.93942701311696
block4.xlsx,216.1,7.5,14,8 x 2,16,5,8 x 2 = 16,small-sized_low-interference,small-sized,low-interference,7,CorrectRESP,a,0,3,3,3,0,15,15,15,,,,,,,,,,,,,,,1110.507926807999,None,1111.0081326929994,None,1113.0083609159992,None,1113.758132,None,1114.0080018879999,None,1114.0080018879999,None,d,0,0.6897413210008381,1114.0080018879999,None,1114.724809,None,1114.724809,None,d,0.16491393500109552,1114.724809,None,1114.9078869709992,None,,,,,,,,,,,,,sub-10,08/08/2001,1: Male,21/10/2023,001,1: right,2023_Oct_21_0951,[FINAL]_fmri_multiplication,2021.2.3,59.93942701311696
block4.xlsx,237.6,7.5,5.2,7 x 5,35,17,7 x 5 = 35,large-sized_low-interference,large-sized,low-interference,7,CorrectRESP,a,0,3,3,3,0,16,16,16,,,,,,,,,,,,,,,1128.9082765249987,None,1129.407025,None,1131.4083817069986,None,1132.1583866469991,None,1132.4085343810002,None,1132.4085343810002,None,d,0,0.5051776919990516,1132.4085343810002,None,1132.9415615439993,None,1132.9415615439993,None,d,0.1721619309992093,1132.9415615439993,None,1133.1413338089988,None,,,,,,,,,,,,,sub-10,08/08/2001,1: Male,21/10/2023,001,1: right,2023_Oct_21_0951,[FINAL]_fmri_multiplication,2021.2.3,59.93942701311696
block4.xlsx,250.3,7.5,9.6,8 x 7,63,22,8 x 7 = 63,large-sized_high-interference,large-sized,high-interference,9,IncorrectRESP,d,0,3,3,3,0,17,17,17,,,,,,,,,,,,,,,1138.33888,None,1138.8343766500002,None,1140.8419817060003,None,1141.5919829059985,None,1141.8433937659993,None,1141.8433937659993,None,a,0,0.5262245300000359,1141.8433937659993,None,1142.391364449999,None,1142.391364449999,None,d,0.2983954410010483,1142.391364449999,None,1142.708252549999,None,,,,,,,,,,,,,sub-10,08/08/2001,1: Male,21/10/2023,001,1: right,2023_Oct_21_0951,[FINAL]_fmri_multiplication,2021.2.3,59.93942701311696
block4.xlsx,267.4,7.5,2.6,2 x 9,16,2,2 x 9 = 16,small-sized_low-interference,small-sized,low-interference,7,IncorrectRESP,d,0,3,3,3,0,18,18,18,,,,,,,,,,,,,,,1152.3080833269996,None,1152.8081166069987,None,1154.808444,None,1155.5584796819985,None,1155.8081564019994,None,1155.8081564019994,None,a,0,0.7295348549996561,1155.8081564019994,None,1156.557798,None,1156.557798,None,d,0.20381518500107632,1156.557798,None,1156.7917173589994,None,,,,,,,,,,,,,sub-10,08/08/2001,1: Male,21/10/2023,001,1: right,2023_Oct_21_0951,[FINAL]_fmri_multiplication,2021.2.3,59.93942701311696
block4.xlsx,277.5,7.5,2.3,9 x 3,27,19,9 x 3 = 27,large-sized_high-interference,large-sized,high-interference,9,CorrectRESP,a,0,3,3,3,0,19,19,19,,,,,,,,,,,,,,,1159.407419658999,None,1159.907931,None,1161.9080891899994,None,1162.6584258639996,None,1162.9081232150002,None,1162.9081232150002,None,d,0,0.5655960679996497,1162.9081232150002,None,1163.491367,None,1163.491367,None,d,0.15835168100056762,1163.491367,None,1163.6747328879992,None,,,,,,,,,,,,,sub-10,08/08/2001,1: Male,21/10/2023,001,1: right,2023_Oct_21_0951,[FINAL]_fmri_multiplication,2021.2.3,59.93942701311696
block4.xlsx,287.3,7.5,3.1,4 x 5,16,8,4 x 5 = 16,small-sized_high-interference,small-sized,high-interference,8,IncorrectRESP,d,0,3,3,3,0,20,20,20,,,,,,,,,,,,,,,1165.974941123999,None,1166.4750911209994,None,1168.4751362629995,None,1169.2251313959987,None,1169.4747552439985,None,1169.4747552439985,None,a,0,0.446983199,1169.4747552439985,None,1169.9413724489987,None,1169.9413724489987,None,d,0.21228939600041485,1169.9413724489987,None,1170.1748611049989,None,,,,,,,,,,,,,sub-10,08/08/2001,1: Male,21/10/2023,001,1: right,2023_Oct_21_0951,[FINAL]_fmri_multiplication,2021.2.3,59.93942701311696
block4.xlsx,297.9,7.5,2.7,7 x 7,49,18,7 x 7 = 49,large-sized_low-interference,large-sized,low-interference,7,CorrectRESP,a,0,3,3,3,0,21,21,21,,,,,,,,,,,,,,,1173.2751438899995,None,1173.7754807389992,None,1175.7753610149994,None,1176.5253453799996,None,1176.7756293399998,None,1176.7756293399998,None,d,0,0.4499881860010646,1176.7756293399998,None,1177.2586664829996,None,1177.2586664829996,None,d,0.12705728200126032,1177.2586664829996,None,1177.408325,None,,,,,,,,,,,,,sub-10,08/08/2001,1: Male,21/10/2023,001,1: right,2023_Oct_21_0951,[FINAL]_fmri_multiplication,2021.2.3,59.93942701311696
block4.xlsx,308.1,7.5,4.8,7 x 2,14,1,7 x 2 = 14,small-sized_low-interference,small-sized,low-interference,4,CorrectRESP,a,0,3,3,3,0,22,22,22,,,,,,,,,,,,,,,1180.1084894119995,None,1180.6082924799994,None,1182.608494,None,1183.3581841759988,None,1183.6084414449997,None,1183.6084414449997,None,d,0,0.5452445190003345,1183.6084414449997,None,1184.1747791339985,None,1184.1747791339985,None,d,0.15493107899965253,1184.1747791339985,None,1184.3582901089994,None,,,,,,,,,,,,,sub-10,08/08/2001,1: Male,21/10/2023,001,1: right,2023_Oct_21_0951,[FINAL]_fmri_multiplication,2021.2.3,59.93942701311696
block4.xlsx,320.4,7.5,7.1,3 x 8,24,12,3 x 8 = 24,small-sized_high-interference,small-sized,high-interference,13,CorrectRESP,a,0,3,3,3,0,23,23,23,,,,,,,,,,,,,,,1189.158291718999,None,1189.6585730909992,None,1191.6585515759998,None,1192.4084799390002,None,1192.6571074029998,None,1192.6571074029998,None,d,0,0.4405987249992904,1192.6571074029998,None,1193.1231019039988,None,1193.1231019039988,None,d,0.17457928099975106,1193.1231019039988,None,1193.3244806919993,None,,,,,,,,,,,,,sub-10,08/08/2001,1: Male,21/10/2023,001,1: right,2023_Oct_21_0951,[FINAL]_fmri_multiplication,2021.2.3,59.93942701311696
block4.xlsx,,,,,,,,,,,,,,0,3,3,3,,,,,0,0,0,0,,,,,,,,,,,,,,,,,,,,,,,,,,,,,,,,,,,,,,1200.4257619649998,None,1200.4257619649998,None,,,,,,,,,sub-10,08/08/2001,1: Male,21/10/2023,001,1: right,2023_Oct_21_0951,[FINAL]_fmri_multiplication,2021.2.3,59.93942701311696
block4.xlsx,,,,,,,,,,,,,,0,3,3,3,,,,,1,0,1,0,,,,,,,,,,,,,,,,,,,,,,,,,,,,,,,,,,,,,,1201.425491,1201.425491,1201.425491,1201.425491,,,,,,,,,sub-10,08/08/2001,1: Male,21/10/2023,001,1: right,2023_Oct_21_0951,[FINAL]_fmri_multiplication,2021.2.3,59.93942701311696
block4.xlsx,,,,,,,,,,,,,,0,3,3,3,,,,,2,0,2,0,,,,,,,,,,,,,,,,,,,,,,,,,,,,,,,,,,,,,,1202.4253243849998,1202.4253243849998,1202.4253243849998,1202.4253243849998,,,,,,,,,sub-10,08/08/2001,1: Male,21/10/2023,001,1: right,2023_Oct_21_0951,[FINAL]_fmri_multiplication,2021.2.3,59.93942701311696
block4.xlsx,,,,,,,,,,,,,,0,3,3,3,,,,,3,0,3,0,,,,,,,,,,,,,,,,,,,,,,,,,,,,,,,,,,,,,,1203.4243206519986,1203.4243206519986,1203.4243206519986,1203.4243206519986,,,,,,,,,sub-10,08/08/2001,1: Male,21/10/2023,001,1: right,2023_Oct_21_0951,[FINAL]_fmri_multiplication,2021.2.3,59.93942701311696
block4.xlsx,,,,,,,,,,,,,,0,3,3,3,,,,,4,0,4,0,,,,,,,,,,,,,,,,,,,,,,,,,,,,,,,,,,,,,,1204.425628,1204.425628,1204.425628,1204.425628,,,,,,,,,sub-10,08/08/2001,1: Male,21/10/2023,001,1: right,2023_Oct_21_0951,[FINAL]_fmri_multiplication,2021.2.3,59.93942701311696
block4.xlsx,,,,,,,,,,,,,,0,3,3,3,,,,,5,0,5,0,,,,,,,,,,,,,,,,,,,,,,,,,,,,,,,,,,,,,,1205.4261999399987,1205.4261999399987,1205.4261999399987,1205.4261999399987,,,,,,,,,sub-10,08/08/2001,1: Male,21/10/2023,001,1: right,2023_Oct_21_0951,[FINAL]_fmri_multiplication,2021.2.3,59.93942701311696
block4.xlsx,,,,,,,,,,,,,,0,3,3,3,,,,,6,0,6,0,,,,,,,,,,,,,,,,,,,,,,,,,,,,,,,,,,,,,,1206.426257535999,1206.426257535999,1206.426257535999,1206.426257535999,,,,,,,,,sub-10,08/08/2001,1: Male,21/10/2023,001,1: right,2023_Oct_21_0951,[FINAL]_fmri_multiplication,2021.2.3,59.93942701311696
block4.xlsx,,,,,,,,,,,,,,0,3,3,3,,,,,7,0,7,0,,,,,,,,,,,,,,,,,,,,,,,,,,,,,,,,,,,,,,1207.426331,1207.426331,1207.426331,1207.426331,,,,,,,,,sub-10,08/08/2001,1: Male,21/10/2023,001,1: right,2023_Oct_21_0951,[FINAL]_fmri_multiplication,2021.2.3,59.93942701311696
block4.xlsx,,,,,,,,,,,,,,0,3,3,3,,,,,8,0,8,0,,,,,,,,,,,,,,,,,,,,,,,,,,,,,,,,,,,,,,1208.44357,None,1208.44357,None,,,,,,,,,sub-10,08/08/2001,1: Male,21/10/2023,001,1: right,2023_Oct_21_0951,[FINAL]_fmri_multiplication,2021.2.3,59.93942701311696
block4.xlsx,,,,,,,,,,,,,,0,3,3,3,,,,,9,0,9,0,,,,,,,,,,,,,,,,,,,,,,,,,,,,,,,,,,,,,,1209.4446456939986,None,1209.4446456939986,None,,,,,,,,,sub-10,08/08/2001,1: Male,21/10/2023,001,1: right,2023_Oct_21_0951,[FINAL]_fmri_multiplication,2021.2.3,59.93942701311696
block4.xlsx,,,,,,,,,,,,,,0,3,3,3,,,,,10,0,10,0,,,,,,,,,,,,,,,,,,,,,,,,,,,,,,,,,,,,,,1210.4433755769987,None,1210.4433755769987,None,,,,,,,,,sub-10,08/08/2001,1: Male,21/10/2023,001,1: right,2023_Oct_21_0951,[FINAL]_fmri_multiplication,2021.2.3,59.93942701311696
block4.xlsx,,,,,,,,,,,,,,0,3,3,3,,,,,11,0,11,0,,,,,,,,,,,,,,,,,,,,,,,,,,,,,,,,,,,,,,1211.442485260999,None,1211.442485260999,None,,,,,,,,,sub-10,08/08/2001,1: Male,21/10/2023,001,1: right,2023_Oct_21_0951,[FINAL]_fmri_multiplication,2021.2.3,59.93942701311696
block4.xlsx,,,,,,,,,,,,,,0,3,3,3,,,,,12,0,12,0,,,,,,,,,,,,,,,,,,,,,,,,,,,,,,,,,,,,,,1212.443316,None,1212.443316,None,,,,,,,,,sub-10,08/08/2001,1: Male,21/10/2023,001,1: right,2023_Oct_21_0951,[FINAL]_fmri_multiplication,2021.2.3,59.93942701311696
block4.xlsx,,,,,,,,,,,,,,0,3,3,3,,,,,13,0,13,0,,,,,,,,,,,,,,,,,,,,,,,,,,,,,,,,,,,,,,1213.4423817669995,None,1213.4423817669995,None,,,,,,,,,sub-10,08/08/2001,1: Male,21/10/2023,001,1: right,2023_Oct_21_0951,[FINAL]_fmri_multiplication,2021.2.3,59.93942701311696
block4.xlsx,,,,,,,,,,,,,,0,3,3,3,,,,,14,0,14,0,,,,,,,,,,,,,,,,,,,,,,,,,,,,,,,,,,,,,,1214.4428340979994,None,1214.4428340979994,None,,,,,,,,,sub-10,08/08/2001,1: Male,21/10/2023,001,1: right,2023_Oct_21_0951,[FINAL]_fmri_multiplication,2021.2.3,59.93942701311696
block4.xlsx,,,,,,,,,,,,,,0,3,3,3,,,,,15,0,15,0,,,,,,,,,,,,,,,,,,,,,,,,,,,,,,,,,,,,,,1215.4417164979986,None,1215.4417164979986,None,,,,,,,,,sub-10,08/08/2001,1: Male,21/10/2023,001,1: right,2023_Oct_21_0951,[FINAL]_fmri_multiplication,2021.2.3,59.93942701311696
block4.xlsx,,,,,,,,,,,,,,0,3,3,3,,,,,16,0,16,0,,,,,,,,,,,,,,,,,,,,,,,,,,,,,,,,,,,,,,1216.4411581530003,None,1216.4411581530003,None,,,,,,,,,sub-10,08/08/2001,1: Male,21/10/2023,001,1: right,2023_Oct_21_0951,[FINAL]_fmri_multiplication,2021.2.3,59.93942701311696
block4.xlsx,,,,,,,,,,,,,,0,3,3,3,,,,,17,0,17,0,,,,,,,,,,,,,,,,,,,,,,,,,,,,,,,,,,,,,,1217.4413098529985,None,1217.4413098529985,None,,,,,,,,,sub-10,08/08/2001,1: Male,21/10/2023,001,1: right,2023_Oct_21_0951,[FINAL]_fmri_multiplication,2021.2.3,59.93942701311696
block4.xlsx,,,,,,,,,,,,,,0,3,3,3,,,,,18,0,18,0,,,,,,,,,,,,,,,,,,,,,,,,,,,,,,,,,,,,,,1218.4415340099986,None,1218.4415340099986,None,,,,,,,,,sub-10,08/08/2001,1: Male,21/10/2023,001,1: right,2023_Oct_21_0951,[FINAL]_fmri_multiplication,2021.2.3,59.93942701311696
block4.xlsx,,,,,,,,,,,,,,0,3,3,3,,,,,19,0,19,0,,,,,,,,,,,,,,,,,,,,,,,,,,,,,,,,,,,,,,1219.432900804999,None,1219.432900804999,None,,,,,,,,,sub-10,08/08/2001,1: Male,21/10/2023,001,1: right,2023_Oct_21_0951,[FINAL]_fmri_multiplication,2021.2.3,59.93942701311696
block4.xlsx,,,,,,,,,,,,,,0,3,3,3,,,,,20,0,20,0,,,,,,,,,,,,,,,,,,,,,,,,,,,,,,,,,,,,,,1220.442048769999,None,1220.442048769999,None,,,,,,,,,sub-10,08/08/2001,1: Male,21/10/2023,001,1: right,2023_Oct_21_0951,[FINAL]_fmri_multiplication,2021.2.3,59.93942701311696
block4.xlsx,,,,,,,,,,,,,,0,3,3,3,,,,,21,0,21,0,,,,,,,,,,,,,,,,,,,,,,,,,,,,,,,,,,,,,,1221.4422041979997,None,1221.4422041979997,None,,,,,,,,,sub-10,08/08/2001,1: Male,21/10/2023,001,1: right,2023_Oct_21_0951,[FINAL]_fmri_multiplication,2021.2.3,59.93942701311696
block4.xlsx,,,,,,,,,,,,,,0,3,3,3,,,,,22,0,22,0,,,,,,,,,,,,,,,,,,,,,,,,,,,,,,,,,,,,,,1222.4425331679995,None,1222.4425331679995,None,,,,,,,,,sub-10,08/08/2001,1: Male,21/10/2023,001,1: right,2023_Oct_21_0951,[FINAL]_fmri_multiplication,2021.2.3,59.93942701311696
block4.xlsx,,,,,,,,,,,,,,0,3,3,3,,,,,23,0,23,0,,,,,,,,,,,,,,,,,,,,,,,,,,,,,,,,,,,,,,1223.4414413429986,None,1223.4414413429986,None,,,,,,,,,sub-10,08/08/2001,1: Male,21/10/2023,001,1: right,2023_Oct_21_0951,[FINAL]_fmri_multiplication,2021.2.3,59.93942701311696
block4.xlsx,,,,,,,,,,,,,,0,3,3,3,,,,,24,0,24,0,,,,,,,,,,,,,,,,,,,,,,,,,,,,,,,,,,,,,,1224.4418516229998,None,1224.4418516229998,None,,,,,,,,,sub-10,08/08/2001,1: Male,21/10/2023,001,1: right,2023_Oct_21_0951,[FINAL]_fmri_multiplication,2021.2.3,59.93942701311696
block4.xlsx,,,,,,,,,,,,,,0,3,3,3,,,,,25,0,25,0,,,,,,,,,,,,,,,,,,,,,,,,,,,,,,,,,,,,,,1225.4422257159986,None,1225.4422257159986,None,,,,,,,,,sub-10,08/08/2001,1: Male,21/10/2023,001,1: right,2023_Oct_21_0951,[FINAL]_fmri_multiplication,2021.2.3,59.93942701311696
block4.xlsx,,,,,,,,,,,,,,0,3,3,3,,,,,26,0,26,0,,,,,,,,,,,,,,,,,,,,,,,,,,,,,,,,,,,,,,1226.441773,None,1226.441773,None,,,,,,,,,sub-10,08/08/2001,1: Male,21/10/2023,001,1: right,2023_Oct_21_0951,[FINAL]_fmri_multiplication,2021.2.3,59.93942701311696
block4.xlsx,,,,,,,,,,,,,,0,3,3,3,,,,,27,0,27,0,,,,,,,,,,,,,,,,,,,,,,,,,,,,,,,,,,,,,,1227.4409064599986,None,1227.4409064599986,None,,,,,,,,,sub-10,08/08/2001,1: Male,21/10/2023,001,1: right,2023_Oct_21_0951,[FINAL]_fmri_multiplication,2021.2.3,59.93942701311696
block4.xlsx,,,,,,,,,,,,,,0,3,3,3,,,,,28,0,28,0,,,,,,,,,,,,,,,,,,,,,,,,,,,,,,,,,,,,,,1228.4417917279989,None,1228.4417917279989,None,,,,,,,,,sub-10,08/08/2001,1: Male,21/10/2023,001,1: right,2023_Oct_21_0951,[FINAL]_fmri_multiplication,2021.2.3,59.93942701311696
block4.xlsx,,,,,,,,,,,,,,0,3,3,3,,,,,29,0,29,0,,,,,,,,,,,,,,,,,,,,,,,,,,,,,,,,,,,,,,1229.4421777480002,None,1229.4421777480002,None,,,,,,,,,sub-10,08/08/2001,1: Male,21/10/2023,001,1: right,2023_Oct_21_0951,[FINAL]_fmri_multiplication,2021.2.3,59.93942701311696
block4.xlsx,,,,,,,,,,,,,,0,3,3,3,,,,,,,,,,,,,,,,,,,,,,,,,,,,,,,,,,,,,,,,,,,,,,,,,,,,,,,,,,sub-10,08/08/2001,1: Male,21/10/2023,001,1: right,2023_Oct_21_0951,[FINAL]_fmri_multiplication,2021.2.3,59.93942701311696
,,,,,,,,,,,,,,,,,,,,,,,,,,,,,,,,,,,,,,,,,,,,,,,,,,,,,,,,,,,,,,,,,,,1230.4416050979999,1232.4416106399985,1232.4248596519992,None,y,446.77750036200086,1232.4248596519992,None,sub-10,08/08/2001,1: Male,21/10/2023,001,1: right,2023_Oct_21_0951,[FINAL]_fmri_multiplication,2021.2.3,59.93942701311696