blocks_file,start,dur,rest,mult_problemB,mult_options,stim_trial,mult_stim,type,ProblemSize,InterferenceLH,InterferenceLevel,mult_type,corrRESP,blocks_set.thisRepN,blocks_set.thisTrialN,blocks_set.thisN,blocks_set.thisIndex,TRIALS.thisRepN,TRIALS.thisTrialN,TRIALS.thisN,TRIALS.thisIndex,timer_loop.thisRepN,timer_loop.thisTrialN,timer_loop.thisN,timer_loop.thisIndex,WAIT_TEXT.started,WAIT_TEXT.stopped,scan_start_trigger.keys,scan_start_trigger.rt,scan_start_trigger.started,scan_start_trigger.stopped,MAIN_SCREEN.started,MAIN_SCREEN.stopped,Block_Text.started,Block_Text.stopped,asterisk500ms.started,asterisk500ms.stopped,mult_question_text.started,mult_question_text.stopped,equal_text.started,equal_text.stopped,blank250_text.started,blank250_text.stopped,Mult_OPTION.started,Mult_OPTION.stopped,Mult_YN.started,Mult_YN.stopped,Mult_Resp.keys,Mult_Resp.corr,Mult_Resp.rt,Mult_Resp.started,Mult_Resp.stopped,Strategy_Q.started,Strategy_Q.stopped,Strategy_Option.started,Strategy_Option.stopped,Strategy_RESP.keys,Strategy_RESP.rt,Strategy_RESP.started,Strategy_RESP.stopped,jitters.started,jitters.stopped,resting_text.started,resting_text.stopped,countdown_timer.started,countdown_timer.stopped,End_Text.started,End_Text.stopped,fixation.started,fixation.stopped,fixation_end.keys,fixation_end.rt,fixation_end.started,fixation_end.stopped,participant,Date of birth (DD/MM/YEAR),gender,Testing Date (DD/MM/YEAR),session,handedness,date,expName,psychopyVersion,frameRate
,,,,,,,,,,,,,,,,,,,,,,,,,,34.08868729799724,None,s,35.00153346099978,34.08868729799724,None,,,,,,,,,,,,,,,,,,,,,,,,,,,,,,,,,,,,,,,,,,,,sub-21,31/03/2003,1: Male,15/10/2023,001,1: right,2023_Oct_15_1649,[FINAL]_fmri_multiplication,2021.2.3,60.20177431392194
block1.xlsx,10,7.5,15.3,6 x 6,36,13,6 x 6 = 36,large-sized_low-interference,large-sized,low-interference,4,CorrectRESP,a,0,0,0,0,0,0,0,0,,,,,,,,,,,69.10725328000262,None,74.12630864899984,None,84.14463568400242,None,84.62604783399729,None,86.62323406799987,None,87.37301700699754,None,87.62486049799918,None,87.62486049799918,None,d,0,0.5267100010023569,87.62486049799918,None,88.18754862,None,88.18754862,None,a,0.3720155459959642,88.18754862,None,88.59015830600401,None,,,,,,,,,,,,,sub-21,31/03/2003,1: Male,15/10/2023,001,1: right,2023_Oct_15_1649,[FINAL]_fmri_multiplication,2021.2.3,60.20177431392194
block1.xlsx,32.8,7.5,2.5,2 x 9,18,2,2 x 9 = 18,small-sized_low-interference,small-sized,low-interference,7,CorrectRESP,a,0,0,0,0,0,1,1,1,,,,,,,,,,,,,,,103.89040550900245,None,104.39314563199878,None,106.40716716200404,None,107.1568615310025,None,107.40804178200051,None,107.40804178200051,None,d,0,0.4556107120006345,107.40804178200051,None,107.89027626800089,None,107.89027626800089,None,d,0.26930156299931696,107.89027626800089,None,108.19014367600175,None,,,,,,,,,,,,,sub-21,31/03/2003,1: Male,15/10/2023,001,1: right,2023_Oct_15_1649,[FINAL]_fmri_multiplication,2021.2.3,60.20177431392194
block1.xlsx,42.8,7.5,3.8,8 x 4,28,24,8 x 4 = 28,large-sized_high-interference,large-sized,high-interference,25,IncorrectRESP,d,0,0,0,0,0,2,2,2,,,,,,,,,,,,,,,110.68990045700048,None,111.19065834500361,None,113.19014968300326,None,113.94014675600192,None,114.1901190810022,None,114.1901190810022,None,a,0,0.5934864139999263,114.1901190810022,None,114.80638200500107,None,114.80638200500107,None,d,0.28929538700322155,114.80638200500107,None,115.1234620230025,None,,,,,,,,,,,,,sub-21,31/03/2003,1: Male,15/10/2023,001,1: right,2023_Oct_15_1649,[FINAL]_fmri_multiplication,2021.2.3,60.20177431392194
block1.xlsx,54.1,7.5,5.5,7 x 2,14,1,7 x 2 = 14,small-sized_low-interference,small-sized,low-interference,4,CorrectRESP,a,0,0,0,0,0,3,3,3,,,,,,,,,,,,,,,118.94022437300009,None,119.44093721800164,None,121.45682295299775,None,122.20683855099924,None,122.4565648429998,None,122.4565648429998,None,d,0,0.5190018699940993,122.4565648429998,None,123.00553354799922,None,123.00553354799922,None,d,0.27408246399863856,123.00553354799922,None,123.30606534300023,None,,,,,,,,,,,,,sub-21,31/03/2003,1: Male,15/10/2023,001,1: right,2023_Oct_15_1649,[FINAL]_fmri_multiplication,2021.2.3,60.20177431392194
block1.xlsx,67.1,7.5,3,7 x 7,56,18,7 x 7 = 56,large-sized_low-interference,large-sized,low-interference,7,IncorrectRESP,d,0,0,0,0,0,4,4,4,,,,,,,,,,,,,,,128.80683887199848,None,129.30700883700047,None,131.30676633400435,None,132.0567491690017,None,132.3209831560016,None,132.3209831560016,None,a,0,0.6467261869984213,132.3209831560016,None,132.99002002400084,None,132.99002002400084,None,d,0.24165484299737727,132.99002002400084,None,133.25666134899802,None,,,,,,,,,,,,,sub-21,31/03/2003,1: Male,15/10/2023,001,1: right,2023_Oct_15_1649,[FINAL]_fmri_multiplication,2021.2.3,60.20177431392194
block1.xlsx,77.6,7.5,2.1,3 x 4,12,9,3 x 4 = 12,small-sized_high-interference,small-sized,high-interference,10,CorrectRESP,a,0,0,0,0,0,5,5,5,,,,,,,,,,,,,,,136.2569059230009,None,136.7573949389989,None,138.75634221499786,None,139.50718804300413,None,139.7574215709974,None,139.7574215709974,None,d,0,0.5382651440013433,139.7574215709974,None,140.32365117299923,None,140.32365117299923,None,d,0.17202225100481883,140.32365117299923,None,140.52392169299856,None,,,,,,,,,,,,,sub-21,31/03/2003,1: Male,15/10/2023,001,1: right,2023_Oct_15_1649,[FINAL]_fmri_multiplication,2021.2.3,60.20177431392194
block1.xlsx,87.2,7.5,5,8 x 7,63,22,8 x 7 = 63,large-sized_high-interference,large-sized,high-interference,9,IncorrectRESP,d,0,0,0,0,0,6,6,6,,,,,,,,,,,,,,,142.62356047199864,None,143.12329881200276,None,145.12347331600176,None,145.87334082400048,None,146.1235217220019,None,146.1235217220019,None,a,0,0.6360540500027128,146.1235217220019,None,146.79009751400008,None,146.79009751400008,None,d,0.089554114,146.79009751400008,None,146.90677985199727,None,,,,,,,,,,,,,sub-21,31/03/2003,1: Male,15/10/2023,001,1: right,2023_Oct_15_1649,[FINAL]_fmri_multiplication,2021.2.3,60.20177431392194
block1.xlsx,99.7,7.5,3,5 x 5,25,3,5 x 5 = 25,small-sized_low-interference,small-sized,low-interference,3,CorrectRESP,a,0,0,0,0,0,7,7,7,,,,,,,,,,,,,,,151.90633481799887,None,152.40667952100193,None,154.4068227500029,None,155.15631266200216,None,155.40708590199938,None,155.40708590199938,None,d,0,0.5364739529977669,155.40708590199938,None,155.97337386399886,None,155.97337386399886,None,d,0.3701943729975028,155.97337386399886,None,156.37346520400024,None,,,,,,,,,,,,,sub-21,31/03/2003,1: Male,15/10/2023,001,1: right,2023_Oct_15_1649,[FINAL]_fmri_multiplication,2021.2.3,60.20177431392194
block1.xlsx,110.2,7.5,6.5,6 x 4,28,10,6 x 4 = 28,small-sized_high-interference,small-sized,high-interference,12,IncorrectRESP,d,0,0,0,0,0,8,8,8,,,,,,,,,,,,,,,159.3731635840013,None,159.8727621529979,None,161.87351179699908,None,162.62346292899747,None,162.87323473099968,None,162.87323473099968,None,a,0,0.6623322269952041,162.87323473099968,None,163.5563386290014,None,163.5563386290014,None,d,0.1553421279968461,163.5563386290014,None,163.74015092600166,None,,,,,,,,,,,,,sub-21,31/03/2003,1: Male,15/10/2023,001,1: right,2023_Oct_15_1649,[FINAL]_fmri_multiplication,2021.2.3,60.20177431392194
block1.xlsx,124.2,7.5,5.7,5 x 8,40,21,5 x 8 = 40,large-sized_high-interference,large-sized,high-interference,9,CorrectRESP,a,0,0,0,0,0,9,9,9,,,,,,,,,,,,,,,170.2558260279984,None,170.75734527000168,None,172.75724638799875,None,173.50713130600343,None,173.7588114120008,None,173.7588114120008,None,d,0,0.44077834999916377,173.7588114120008,None,174.22336662199814,None,174.22336662199814,None,d,0.36822398799995426,174.22336662199814,None,174.62371716000052,None,,,,,,,,,,,,,sub-21,31/03/2003,1: Male,15/10/2023,001,1: right,2023_Oct_15_1649,[FINAL]_fmri_multiplication,2021.2.3,60.20177431392194
block1.xlsx,137.4,7.5,11.2,7 x 3,24,11,7 x 3 = 24,small-sized_high-interference,small-sized,high-interference,13,IncorrectRESP,d,0,0,0,0,0,10,10,10,,,,,,,,,,,,,,,180.3235293070029,None,180.8235161190023,None,182.82303997100098,None,183.5736186790018,None,183.8238506,None,183.8238506,None,a,0,0.6237290129938629,183.8238506,None,184.47313409300114,None,184.47313409300114,None,d,0.1585315129996161,184.47313409300114,None,184.65650998300407,None,,,,,,,,,,,,,sub-21,31/03/2003,1: Male,15/10/2023,001,1: right,2023_Oct_15_1649,[FINAL]_fmri_multiplication,2021.2.3,60.20177431392194
block1.xlsx,156.1,7.5,6.9,5 x 6,30,14,5 x 6 = 30,large-sized_low-interference,large-sized,low-interference,6,CorrectRESP,a,0,0,0,0,0,11,11,11,,,,,,,,,,,,,,,195.85675617800007,None,196.3566267999995,None,198.35683067500213,None,199.1068341479986,None,199.35709897299967,None,199.35709897299967,None,d,0,0.42650693000177853,199.35709897299967,None,199.80652592299884,None,199.80652592299884,None,d,0.20104725899727782,199.80652592299884,None,200.04020024499914,None,,,,,,,,,,,,,sub-21,31/03/2003,1: Male,15/10/2023,001,1: right,2023_Oct_15_1649,[FINAL]_fmri_multiplication,2021.2.3,60.20177431392194
block1.xlsx,170.5,7.5,2.4,6 x 2,10,6,6 x 2 = 10,small-sized_low-interference,small-sized,low-interference,3,IncorrectRESP,d,0,0,0,0,0,12,12,12,,,,,,,,,,,,,,,206.94049472200277,None,207.4407714629997,None,209.44050003900338,None,210.19038283400005,None,210.4406578019989,None,210.4406578019989,None,a,0,0.6070226330048172,210.4406578019989,None,211.07373657199787,None,211.07373657199787,None,d,0.093887131,211.07373657199787,None,211.18985498400434,None,,,,,,,,,,,,,sub-21,31/03/2003,1: Male,15/10/2023,001,1: right,2023_Oct_15_1649,[FINAL]_fmri_multiplication,2021.2.3,60.20177431392194
block1.xlsx,180.4,7.5,4.6,4 x 9,36,20,4 x 9 = 36,large-sized_high-interference,large-sized,high-interference,9,CorrectRESP,a,0,0,0,0,0,13,13,13,,,,,,,,,,,,,,,213.59000232999824,None,214.09057624900015,None,216.09010252000007,None,216.8402128680027,None,217.08979488600016,None,217.08979488600016,None,d,0,0.6697576890001073,217.08979488600016,None,217.79004858100234,None,217.79004858100234,None,d,0.36147582300327485,217.79004858100234,None,218.17352019600366,None,,,,,,,,,,,,,sub-21,31/03/2003,1: Male,15/10/2023,001,1: right,2023_Oct_15_1649,[FINAL]_fmri_multiplication,2021.2.3,60.20177431392194
block1.xlsx,192.5,7.5,9,7 x 5,40,17,7 x 5 = 40,large-sized_low-interference,large-sized,low-interference,7,IncorrectRESP,d,0,0,0,0,0,14,14,14,,,,,,,,,,,,,,,222.7889869990031,None,223.2898952329997,None,225.2900714330026,None,226.0393453709985,None,226.29015169299964,None,226.29015169299964,None,a,0,0.565539125,226.29015169299964,None,226.87341976100288,None,226.87341976100288,None,d,0.094170814,226.87341976100288,None,226.9897234070013,None,,,,,,,,,,,,,sub-21,31/03/2003,1: Male,15/10/2023,001,1: right,2023_Oct_15_1649,[FINAL]_fmri_multiplication,2021.2.3,60.20177431392194
block1.xlsx,209,7.5,5.8,6 x 3,18,7,6 x 3 = 18,small-sized_high-interference,small-sized,high-interference,8,CorrectRESP,a,0,0,0,0,0,15,15,15,,,,,,,,,,,,,,,235.99028289400303,None,236.48984072200255,None,238.50434248599777,None,239.2380687190016,None,239.4829555690012,None,239.4829555690012,None,d,0,0.548729613,239.4829555690012,None,240.0564979260016,None,240.0564979260016,None,d,0.42318612599774497,240.0564979260016,None,240.5071696340019,None,,,,,,,,,,,,,sub-21,31/03/2003,1: Male,15/10/2023,001,1: right,2023_Oct_15_1649,[FINAL]_fmri_multiplication,2021.2.3,60.20177431392194
block1.xlsx,222.3,7.5,2.9,7 x 6,48,23,7 x 6 = 48,large-sized_high-interference,large-sized,high-interference,22,IncorrectRESP,d,0,0,0,0,0,16,16,16,,,,,,,,,,,,,,,246.3070842090019,None,246.8071348250014,None,248.80683346200385,None,249.5569599340015,None,249.8067992560027,None,249.8067992560027,None,a,0,0.8329555560048902,249.8067992560027,None,250.6567834640009,None,250.6567834640009,None,d,0.078874661,250.6567834640009,None,250.75642003399844,None,,,,,,,,,,,,,sub-21,31/03/2003,1: Male,15/10/2023,001,1: right,2023_Oct_15_1649,[FINAL]_fmri_multiplication,2021.2.3,60.20177431392194
block1.xlsx,232.7,7.5,6.9,9 x 5,45,15,9 x 5 = 45,large-sized_low-interference,large-sized,low-interference,6,CorrectRESP,a,0,0,0,0,0,17,17,17,,,,,,,,,,,,,,,253.65664694400039,None,254.15684993500327,None,256.1569186780034,None,256.9067920939997,None,257.1568836,None,257.1568836,None,d,0,0.44268242199905217,257.1568836,None,257.62295804399764,None,257.62295804399764,None,d,0.15260335699713323,257.62295804399764,None,257.80694288200175,None,,,,,,,,,,,,,sub-21,31/03/2003,1: Male,15/10/2023,001,1: right,2023_Oct_15_1649,[FINAL]_fmri_multiplication,2021.2.3,60.20177431392194
block1.xlsx,247.1,7.5,2.5,4 x 4,20,4,4 x 4 = 20,small-sized_low-interference,small-sized,low-interference,5,IncorrectRESP,d,0,0,0,0,0,18,18,18,,,,,,,,,,,,,,,264.7063750669986,None,265.20691076399817,None,267.20678460100316,None,267.9568254589976,None,268.2079554910015,None,268.2079554910015,None,a,0,0.5675905520038214,268.2079554910015,None,268.8063903930015,None,268.8063903930015,None,d,0.057309609997901134,268.8063903930015,None,268.8893549679997,None,,,,,,,,,,,,,sub-21,31/03/2003,1: Male,15/10/2023,001,1: right,2023_Oct_15_1649,[FINAL]_fmri_multiplication,2021.2.3,60.20177431392194
block1.xlsx,257.1,7.5,3.7,9 x 3,27,19,9 x 3 = 27,large-sized_high-interference,large-sized,high-interference,9,CorrectRESP,a,0,0,0,0,0,19,19,19,,,,,,,,,,,,,,,271.39029834100074,None,271.8900802479984,None,273.90440527199826,None,274.6572466209982,None,274.90743577099784,None,274.90743577099784,None,d,0,0.5081366300000809,274.90743577099784,None,275.4402400379986,None,275.4402400379986,None,d,0.15935008700034814,275.4402400379986,None,275.62379405299725,None,,,,,,,,,,,,,sub-21,31/03/2003,1: Male,15/10/2023,001,1: right,2023_Oct_15_1649,[FINAL]_fmri_multiplication,2021.2.3,60.20177431392194
block1.xlsx,268.3,7.5,3.5,4 x 5,20,8,4 x 5 = 20,small-sized_high-interference,small-sized,high-interference,8,CorrectRESP,a,0,0,0,0,0,20,20,20,,,,,,,,,,,,,,,279.3234236499993,None,279.82396403000166,None,281.8238143050039,None,282.57386681999924,None,282.8239100280043,None,282.8239100280043,None,d,0,0.46381781999662053,282.8239100280043,None,283.30638423799974,None,283.30638423799974,None,d,0.16539038500195602,283.30638423799974,None,283.48982543199963,None,,,,,,,,,,,,,sub-21,31/03/2003,1: Male,15/10/2023,001,1: right,2023_Oct_15_1649,[FINAL]_fmri_multiplication,2021.2.3,60.20177431392194
block1.xlsx,279.3,7.5,11.6,9 x 9,72,16,9 x 9 = 72,large-sized_low-interference,large-sized,low-interference,6,IncorrectRESP,d,0,0,0,0,0,21,21,21,,,,,,,,,,,,,,,286.99028587499924,None,287.4899162549991,None,289.4901205950009,None,290.24022016500385,None,290.4902596410029,None,290.4902596410029,None,a,0,0.5013047180036665,290.4902596410029,None,291.0233529190009,None,291.0233529190009,None,d,0.064298516,291.0233529190009,None,291.1052293009998,None,,,,,,,,,,,,,sub-21,31/03/2003,1: Male,15/10/2023,001,1: right,2023_Oct_15_1649,[FINAL]_fmri_multiplication,2021.2.3,60.20177431392194
block1.xlsx,298.4,7.5,12.8,3 x 8,21,12,3 x 8 = 21,small-sized_high-interference,small-sized,high-interference,13,IncorrectRESP,d,0,0,0,0,0,22,22,22,,,,,,,,,,,,,,,302.7068449779981,None,303.20712448400445,None,305.20697220600414,None,305.9569733800017,None,306.20786967800086,None,306.20786967800086,None,d,1,0.6637754070034134,306.20786967800086,None,306.88979269300035,None,306.88979269300035,None,d,1.0858100920013385,306.88979269300035,None,308.0067690979995,None,,,,,,,,,,,,,sub-21,31/03/2003,1: Male,15/10/2023,001,1: right,2023_Oct_15_1649,[FINAL]_fmri_multiplication,2021.2.3,60.20177431392194
block1.xlsx,318.7,7.5,8.8,8 x 2,18,5,8 x 2 = 18,small-sized_low-interference,small-sized,low-interference,7,IncorrectRESP,d,0,0,0,0,0,23,23,23,,,,,,,,,,,,,,,320.8070986180028,None,321.3067825170001,None,323.3065771010006,None,324.0570160139978,None,324.30661217200395,None,324.30661217200395,None,a,0,0.5330845499993302,324.30661217200395,None,324.8568575360041,None,324.8568575360041,None,d,0.15065925700037042,324.8568575360041,None,325.04013414400106,None,,,,,,,,,,,,,sub-21,31/03/2003,1: Male,15/10/2023,001,1: right,2023_Oct_15_1649,[FINAL]_fmri_multiplication,2021.2.3,60.20177431392194
block1.xlsx,,,,,,,,,,,,,,0,0,0,0,,,,,0,0,0,0,,,,,,,,,,,,,,,,,,,,,,,,,,,,,,,,,,,,,,333.8427606010009,None,333.8427606010009,None,,,,,,,,,sub-21,31/03/2003,1: Male,15/10/2023,001,1: right,2023_Oct_15_1649,[FINAL]_fmri_multiplication,2021.2.3,60.20177431392194
block1.xlsx,,,,,,,,,,,,,,0,0,0,0,,,,,1,0,1,0,,,,,,,,,,,,,,,,,,,,,,,,,,,,,,,,,,,,,,334.85930113700306,None,334.85930113700306,None,,,,,,,,,sub-21,31/03/2003,1: Male,15/10/2023,001,1: right,2023_Oct_15_1649,[FINAL]_fmri_multiplication,2021.2.3,60.20177431392194
block1.xlsx,,,,,,,,,,,,,,0,0,0,0,,,,,2,0,2,0,,,,,,,,,,,,,,,,,,,,,,,,,,,,,,,,,,,,,,335.87040563199844,None,335.87040563199844,None,,,,,,,,,sub-21,31/03/2003,1: Male,15/10/2023,001,1: right,2023_Oct_15_1649,[FINAL]_fmri_multiplication,2021.2.3,60.20177431392194
block1.xlsx,,,,,,,,,,,,,,0,0,0,0,,,,,3,0,3,0,,,,,,,,,,,,,,,,,,,,,,,,,,,,,,,,,,,,,,336.8573733910016,None,336.8573733910016,None,,,,,,,,,sub-21,31/03/2003,1: Male,15/10/2023,001,1: right,2023_Oct_15_1649,[FINAL]_fmri_multiplication,2021.2.3,60.20177431392194
block1.xlsx,,,,,,,,,,,,,,0,0,0,0,,,,,4,0,4,0,,,,,,,,,,,,,,,,,,,,,,,,,,,,,,,,,,,,,,337.8583092,None,337.8583092,None,,,,,,,,,sub-21,31/03/2003,1: Male,15/10/2023,001,1: right,2023_Oct_15_1649,[FINAL]_fmri_multiplication,2021.2.3,60.20177431392194
block1.xlsx,,,,,,,,,,,,,,0,0,0,0,,,,,5,0,5,0,,,,,,,,,,,,,,,,,,,,,,,,,,,,,,,,,,,,,,338.8579960520001,None,338.8579960520001,None,,,,,,,,,sub-21,31/03/2003,1: Male,15/10/2023,001,1: right,2023_Oct_15_1649,[FINAL]_fmri_multiplication,2021.2.3,60.20177431392194
block1.xlsx,,,,,,,,,,,,,,0,0,0,0,,,,,6,0,6,0,,,,,,,,,,,,,,,,,,,,,,,,,,,,,,,,,,,,,,339.87112300000445,None,339.87112300000445,None,,,,,,,,,sub-21,31/03/2003,1: Male,15/10/2023,001,1: right,2023_Oct_15_1649,[FINAL]_fmri_multiplication,2021.2.3,60.20177431392194
block1.xlsx,,,,,,,,,,,,,,0,0,0,0,,,,,7,0,7,0,,,,,,,,,,,,,,,,,,,,,,,,,,,,,,,,,,,,,,340.85937322200334,None,340.85937322200334,None,,,,,,,,,sub-21,31/03/2003,1: Male,15/10/2023,001,1: right,2023_Oct_15_1649,[FINAL]_fmri_multiplication,2021.2.3,60.20177431392194
block1.xlsx,,,,,,,,,,,,,,0,0,0,0,,,,,8,0,8,0,,,,,,,,,,,,,,,,,,,,,,,,,,,,,,,,,,,,,,341.87052179199964,None,341.87052179199964,None,,,,,,,,,sub-21,31/03/2003,1: Male,15/10/2023,001,1: right,2023_Oct_15_1649,[FINAL]_fmri_multiplication,2021.2.3,60.20177431392194
block1.xlsx,,,,,,,,,,,,,,0,0,0,0,,,,,9,0,9,0,,,,,,,,,,,,,,,,,,,,,,,,,,,,,,,,,,,,,,342.85908574199857,None,342.85908574199857,None,,,,,,,,,sub-21,31/03/2003,1: Male,15/10/2023,001,1: right,2023_Oct_15_1649,[FINAL]_fmri_multiplication,2021.2.3,60.20177431392194
block1.xlsx,,,,,,,,,,,,,,0,0,0,0,,,,,10,0,10,0,,,,,,,,,,,,,,,,,,,,,,,,,,,,,,,,,,,,,,343.8571647209974,None,343.8571647209974,None,,,,,,,,,sub-21,31/03/2003,1: Male,15/10/2023,001,1: right,2023_Oct_15_1649,[FINAL]_fmri_multiplication,2021.2.3,60.20177431392194
block1.xlsx,,,,,,,,,,,,,,0,0,0,0,,,,,11,0,11,0,,,,,,,,,,,,,,,,,,,,,,,,,,,,,,,,,,,,,,344.8574026389979,None,344.8574026389979,None,,,,,,,,,sub-21,31/03/2003,1: Male,15/10/2023,001,1: right,2023_Oct_15_1649,[FINAL]_fmri_multiplication,2021.2.3,60.20177431392194
block1.xlsx,,,,,,,,,,,,,,0,0,0,0,,,,,12,0,12,0,,,,,,,,,,,,,,,,,,,,,,,,,,,,,,,,,,,,,,345.85780887799774,None,345.85780887799774,None,,,,,,,,,sub-21,31/03/2003,1: Male,15/10/2023,001,1: right,2023_Oct_15_1649,[FINAL]_fmri_multiplication,2021.2.3,60.20177431392194
block1.xlsx,,,,,,,,,,,,,,0,0,0,0,,,,,13,0,13,0,,,,,,,,,,,,,,,,,,,,,,,,,,,,,,,,,,,,,,346.85748187800345,None,346.85748187800345,None,,,,,,,,,sub-21,31/03/2003,1: Male,15/10/2023,001,1: right,2023_Oct_15_1649,[FINAL]_fmri_multiplication,2021.2.3,60.20177431392194
block1.xlsx,,,,,,,,,,,,,,0,0,0,0,,,,,14,0,14,0,,,,,,,,,,,,,,,,,,,,,,,,,,,,,,,,,,,,,,347.85822329099756,None,347.85822329099756,None,,,,,,,,,sub-21,31/03/2003,1: Male,15/10/2023,001,1: right,2023_Oct_15_1649,[FINAL]_fmri_multiplication,2021.2.3,60.20177431392194
block1.xlsx,,,,,,,,,,,,,,0,0,0,0,,,,,15,0,15,0,,,,,,,,,,,,,,,,,,,,,,,,,,,,,,,,,,,,,,348.8575683290037,None,348.8575683290037,None,,,,,,,,,sub-21,31/03/2003,1: Male,15/10/2023,001,1: right,2023_Oct_15_1649,[FINAL]_fmri_multiplication,2021.2.3,60.20177431392194
block1.xlsx,,,,,,,,,,,,,,0,0,0,0,,,,,16,0,16,0,,,,,,,,,,,,,,,,,,,,,,,,,,,,,,,,,,,,,,349.8573455,None,349.8573455,None,,,,,,,,,sub-21,31/03/2003,1: Male,15/10/2023,001,1: right,2023_Oct_15_1649,[FINAL]_fmri_multiplication,2021.2.3,60.20177431392194
block1.xlsx,,,,,,,,,,,,,,0,0,0,0,,,,,17,0,17,0,,,,,,,,,,,,,,,,,,,,,,,,,,,,,,,,,,,,,,350.8578415250013,None,350.8578415250013,None,,,,,,,,,sub-21,31/03/2003,1: Male,15/10/2023,001,1: right,2023_Oct_15_1649,[FINAL]_fmri_multiplication,2021.2.3,60.20177431392194
block1.xlsx,,,,,,,,,,,,,,0,0,0,0,,,,,18,0,18,0,,,,,,,,,,,,,,,,,,,,,,,,,,,,,,,,,,,,,,351.8584369360033,None,351.8584369360033,None,,,,,,,,,sub-21,31/03/2003,1: Male,15/10/2023,001,1: right,2023_Oct_15_1649,[FINAL]_fmri_multiplication,2021.2.3,60.20177431392194
block1.xlsx,,,,,,,,,,,,,,0,0,0,0,,,,,19,0,19,0,,,,,,,,,,,,,,,,,,,,,,,,,,,,,,,,,,,,,,352.8567501209982,None,352.8567501209982,None,,,,,,,,,sub-21,31/03/2003,1: Male,15/10/2023,001,1: right,2023_Oct_15_1649,[FINAL]_fmri_multiplication,2021.2.3,60.20177431392194
block1.xlsx,,,,,,,,,,,,,,0,0,0,0,,,,,20,0,20,0,,,,,,,,,,,,,,,,,,,,,,,,,,,,,,,,,,,,,,353.8572593,None,353.8572593,None,,,,,,,,,sub-21,31/03/2003,1: Male,15/10/2023,001,1: right,2023_Oct_15_1649,[FINAL]_fmri_multiplication,2021.2.3,60.20177431392194
block1.xlsx,,,,,,,,,,,,,,0,0,0,0,,,,,21,0,21,0,,,,,,,,,,,,,,,,,,,,,,,,,,,,,,,,,,,,,,354.8577493260018,None,354.8577493260018,None,,,,,,,,,sub-21,31/03/2003,1: Male,15/10/2023,001,1: right,2023_Oct_15_1649,[FINAL]_fmri_multiplication,2021.2.3,60.20177431392194
block1.xlsx,,,,,,,,,,,,,,0,0,0,0,,,,,22,0,22,0,,,,,,,,,,,,,,,,,,,,,,,,,,,,,,,,,,,,,,355.8573857790034,None,355.8573857790034,None,,,,,,,,,sub-21,31/03/2003,1: Male,15/10/2023,001,1: right,2023_Oct_15_1649,[FINAL]_fmri_multiplication,2021.2.3,60.20177431392194
block1.xlsx,,,,,,,,,,,,,,0,0,0,0,,,,,23,0,23,0,,,,,,,,,,,,,,,,,,,,,,,,,,,,,,,,,,,,,,356.85669297500135,None,356.85669297500135,None,,,,,,,,,sub-21,31/03/2003,1: Male,15/10/2023,001,1: right,2023_Oct_15_1649,[FINAL]_fmri_multiplication,2021.2.3,60.20177431392194
block1.xlsx,,,,,,,,,,,,,,0,0,0,0,,,,,24,0,24,0,,,,,,,,,,,,,,,,,,,,,,,,,,,,,,,,,,,,,,357.8569808960019,None,357.8569808960019,None,,,,,,,,,sub-21,31/03/2003,1: Male,15/10/2023,001,1: right,2023_Oct_15_1649,[FINAL]_fmri_multiplication,2021.2.3,60.20177431392194
block1.xlsx,,,,,,,,,,,,,,0,0,0,0,,,,,25,0,25,0,,,,,,,,,,,,,,,,,,,,,,,,,,,,,,,,,,,,,,358.85630885799765,None,358.85630885799765,None,,,,,,,,,sub-21,31/03/2003,1: Male,15/10/2023,001,1: right,2023_Oct_15_1649,[FINAL]_fmri_multiplication,2021.2.3,60.20177431392194
block1.xlsx,,,,,,,,,,,,,,0,0,0,0,,,,,26,0,26,0,,,,,,,,,,,,,,,,,,,,,,,,,,,,,,,,,,,,,,359.8569841749995,None,359.8569841749995,None,,,,,,,,,sub-21,31/03/2003,1: Male,15/10/2023,001,1: right,2023_Oct_15_1649,[FINAL]_fmri_multiplication,2021.2.3,60.20177431392194
block1.xlsx,,,,,,,,,,,,,,0,0,0,0,,,,,27,0,27,0,,,,,,,,,,,,,,,,,,,,,,,,,,,,,,,,,,,,,,360.8568241879984,None,360.8568241879984,None,,,,,,,,,sub-21,31/03/2003,1: Male,15/10/2023,001,1: right,2023_Oct_15_1649,[FINAL]_fmri_multiplication,2021.2.3,60.20177431392194
block1.xlsx,,,,,,,,,,,,,,0,0,0,0,,,,,28,0,28,0,,,,,,,,,,,,,,,,,,,,,,,,,,,,,,,,,,,,,,361.85677769999893,None,361.85677769999893,None,,,,,,,,,sub-21,31/03/2003,1: Male,15/10/2023,001,1: right,2023_Oct_15_1649,[FINAL]_fmri_multiplication,2021.2.3,60.20177431392194
block1.xlsx,,,,,,,,,,,,,,0,0,0,0,,,,,29,0,29,0,,,,,,,,,,,,,,,,,,,,,,,,,,,,,,,,,,,,,,362.8559080999985,None,362.8559080999985,None,,,,,,,,,sub-21,31/03/2003,1: Male,15/10/2023,001,1: right,2023_Oct_15_1649,[FINAL]_fmri_multiplication,2021.2.3,60.20177431392194
block1.xlsx,,,,,,,,,,,,,,0,0,0,0,,,,,,,,,,,,,,,,,,,,,,,,,,,,,,,,,,,,,,,,,,,,,,,,,,,,,,,,,,sub-21,31/03/2003,1: Male,15/10/2023,001,1: right,2023_Oct_15_1649,[FINAL]_fmri_multiplication,2021.2.3,60.20177431392194
block2.xlsx,10,7.5,3.4,3 x 4,15,9,3 x 4 = 15,small-sized_high-interference,small-sized,high-interference,10,IncorrectRESP,d,0,1,1,1,0,0,0,0,,,,,,,,,,,,,363.85768090499914,None,373.87696481400053,None,374.3567323690004,None,376.3569260889999,None,377.1068531569981,None,377.3565981069987,None,377.3565981069987,None,a,0,0.8750648470013402,377.3565981069987,None,378.2564169910038,None,378.2564169910038,None,d,0.07126229,378.2564169910038,None,378.35650530100247,None,,,,,,,,,,,,,sub-21,31/03/2003,1: Male,15/10/2023,001,1: right,2023_Oct_15_1649,[FINAL]_fmri_multiplication,2021.2.3,60.20177431392194
block2.xlsx,20.9,7.5,7,9 x 5,40,15,9 x 5 = 40,large-sized_low-interference,large-sized,low-interference,6,IncorrectRESP,d,0,1,1,1,0,1,1,1,,,,,,,,,,,,,,,381.75722325099923,None,382.2572563030044,None,384.2571966030009,None,385.0073452900033,None,385.2575122060007,None,385.2575122060007,None,a,0,0.582192304,385.2575122060007,None,385.85736118000204,None,385.85736118000204,None,d,0.11027371399541153,385.85736118000204,None,385.9900231959982,None,,,,,,,,,,,,,sub-21,31/03/2003,1: Male,15/10/2023,001,1: right,2023_Oct_15_1649,[FINAL]_fmri_multiplication,2021.2.3,60.20177431392194
block2.xlsx,35.4,7.5,6.6,6 x 4,24,10,6 x 4 = 24,small-sized_high-interference,small-sized,high-interference,12,CorrectRESP,a,0,1,1,1,0,2,2,2,,,,,,,,,,,,,,,392.99020812699746,None,393.4898552070008,None,395.49018315500143,None,396.24061382700165,None,396.49000780499773,None,396.49000780499773,None,d,0,0.42964396500610746,396.49000780499773,None,396.9396804,None,396.9396804,None,d,0.4118937899984303,396.9396804,None,397.3730199870042,None,,,,,,,,,,,,,sub-21,31/03/2003,1: Male,15/10/2023,001,1: right,2023_Oct_15_1649,[FINAL]_fmri_multiplication,2021.2.3,60.20177431392194
block2.xlsx,49.5,7.5,12,7 x 6,42,23,7 x 6 = 42,large-sized_high-interference,large-sized,high-interference,22,CorrectRESP,a,0,1,1,1,0,3,3,3,,,,,,,,,,,,,,,403.9729674240007,None,404.47333842900116,None,406.4735051,None,407.2234789540016,None,407.47383623399946,None,407.47383623399946,None,d,0,0.445811962,407.47383623399946,None,407.9396125860003,None,407.9396125860003,None,d,0.16406049099896336,407.9396125860003,None,408.12303498000256,None,,,,,,,,,,,,,sub-21,31/03/2003,1: Male,15/10/2023,001,1: right,2023_Oct_15_1649,[FINAL]_fmri_multiplication,2021.2.3,60.20177431392194
block2.xlsx,69,7.5,4.9,6 x 2,12,6,6 x 2 = 12,small-sized_low-interference,small-sized,low-interference,3,CorrectRESP,a,0,1,1,1,0,4,4,4,,,,,,,,,,,,,,,420.1239887050033,None,420.62378769899806,None,422.6239127989975,None,423.3736189210031,None,423.6238568350018,None,423.6238568350018,None,d,0,0.4398173079971457,423.6238568350018,None,424.08959942000365,None,424.08959942000365,None,d,0.1501375250009005,424.08959942000365,None,424.25691758200264,None,,,,,,,,,,,,,sub-21,31/03/2003,1: Male,15/10/2023,001,1: right,2023_Oct_15_1649,[FINAL]_fmri_multiplication,2021.2.3,60.20177431392194
block2.xlsx,81.4,7.5,6.6,4 x 9,32,20,4 x 9 = 32,large-sized_high-interference,large-sized,high-interference,9,IncorrectRESP,d,0,1,1,1,0,5,5,5,,,,,,,,,,,,,,,429.15683881600125,None,429.65655294000317,None,431.6565854759974,None,432.40677575099835,None,432.65683262400125,None,432.65683262400125,None,d,1,0.5907706959987991,432.65683262400125,None,433.2731520919988,None,433.2731520919988,None,d,0.9504159849966527,433.2731520919988,None,434.2568031580013,None,,,,,,,,,,,,,sub-21,31/03/2003,1: Male,15/10/2023,001,1: right,2023_Oct_15_1649,[FINAL]_fmri_multiplication,2021.2.3,60.20177431392194
block2.xlsx,95.5,7.5,2.6,5 x 5,30,3,5 x 5 = 30,small-sized_low-interference,small-sized,low-interference,3,IncorrectRESP,d,0,1,1,1,0,6,6,6,,,,,,,,,,,,,,,440.85604704399884,None,441.35702852300165,None,443.35688940300315,None,444.10662034000416,None,444.356831,None,444.356831,None,a,0,0.6907517099971301,444.356831,None,445.0729000950014,None,445.0729000950014,None,d,0.13469532300223364,445.0729000950014,None,445.2401393550026,None,,,,,,,,,,,,,sub-21,31/03/2003,1: Male,15/10/2023,001,1: right,2023_Oct_15_1649,[FINAL]_fmri_multiplication,2021.2.3,60.20177431392194
block2.xlsx,105.6,7.5,3.7,8 x 4,32,24,8 x 4 = 32,large-sized_high-interference,large-sized,high-interference,25,CorrectRESP,a,0,1,1,1,0,7,7,7,,,,,,,,,,,,,,,447.84016640199843,None,448.34078859999863,None,450.34050332000334,None,451.09015171899955,None,451.34040394399926,None,451.34040394399926,None,d,0,0.8031629729957785,451.34040394399926,None,452.1740621240024,None,452.1740621240024,None,d,0.19359446599992225,452.1740621240024,None,452.39011926999956,None,,,,,,,,,,,,,sub-21,31/03/2003,1: Male,15/10/2023,001,1: right,2023_Oct_15_1649,[FINAL]_fmri_multiplication,2021.2.3,60.20177431392194
block2.xlsx,116.8,7.5,3.1,2 x 9,16,2,2 x 9 = 16,small-sized_low-interference,small-sized,low-interference,7,IncorrectRESP,d,0,1,1,1,0,8,8,8,,,,,,,,,,,,,,,456.0898922769993,None,456.59073795899894,None,458.5903022690036,None,459.3403071,None,459.59037585400074,None,459.59037585400074,None,a,0,0.6972773570014397,459.59037585400074,None,460.3064100670017,None,460.3064100670017,None,d,0.085158555,460.3064100670017,None,460.42363533299795,None,,,,,,,,,,,,,sub-21,31/03/2003,1: Male,15/10/2023,001,1: right,2023_Oct_15_1649,[FINAL]_fmri_multiplication,2021.2.3,60.20177431392194
block2.xlsx,127.4,7.5,12.2,5 x 8,45,21,5 x 8 = 45,large-sized_high-interference,large-sized,high-interference,9,IncorrectRESP,d,0,1,1,1,0,9,9,9,,,,,,,,,,,,,,,463.5236000950026,None,464.0237672209987,None,466.0234940810042,None,466.77343616000144,None,467.0235527629993,None,467.0235527629993,None,a,0,0.7200200020015473,467.0235527629993,None,467.7732606350037,None,467.7732606350037,None,d,0.090403575,467.7732606350037,None,467.88930523100134,None,,,,,,,,,,,,,sub-21,31/03/2003,1: Male,15/10/2023,001,1: right,2023_Oct_15_1649,[FINAL]_fmri_multiplication,2021.2.3,60.20177431392194
block2.xlsx,147.1,7.5,13.3,6 x 6,30,13,6 x 6 = 30,large-sized_low-interference,large-sized,low-interference,4,IncorrectRESP,d,0,1,1,1,0,10,10,10,,,,,,,,,,,,,,,480.0900034570004,None,480.5905442939984,None,482.5900789,None,483.3403433830026,None,483.59069846700004,None,483.59069846700004,None,a,0,0.6008939479943365,483.59069846700004,None,484.22372737299884,None,484.22372737299884,None,d,0.04794964,484.22372737299884,None,484.2899426290023,None,,,,,,,,,,,,,sub-21,31/03/2003,1: Male,15/10/2023,001,1: right,2023_Oct_15_1649,[FINAL]_fmri_multiplication,2021.2.3,60.20177431392194
block2.xlsx,167.9,7.5,2.8,7 x 3,21,11,7 x 3 = 21,small-sized_high-interference,small-sized,high-interference,13,CorrectRESP,a,0,1,1,1,0,11,11,11,,,,,,,,,,,,,,,497.59026185199764,None,498.0895885909995,None,500.0899543350024,None,500.8401236530044,None,501.0908673669983,None,501.0908673669983,None,d,0,0.4287561180026387,501.0908673669983,None,501.5397323790021,None,501.5397323790021,None,d,0.17198518900113413,501.5397323790021,None,501.7397342719996,None,,,,,,,,,,,,,sub-21,31/03/2003,1: Male,15/10/2023,001,1: right,2023_Oct_15_1649,[FINAL]_fmri_multiplication,2021.2.3,60.20177431392194
block2.xlsx,178.2,7.5,3.4,8 x 7,56,22,8 x 7 = 56,large-sized_high-interference,large-sized,high-interference,9,CorrectRESP,a,0,1,1,1,0,12,12,12,,,,,,,,,,,,,,,504.5401663869998,None,505.0402704549997,None,507.0401925469996,None,507.79005273400253,None,508.04007671699947,None,508.04007671699947,None,d,0,0.7034803240021574,508.04007671699947,None,508.77340402700065,None,508.77340402700065,None,d,0.15437156800180674,508.77340402700065,None,508.9568109870015,None,,,,,,,,,,,,,sub-21,31/03/2003,1: Male,15/10/2023,001,1: right,2023_Oct_15_1649,[FINAL]_fmri_multiplication,2021.2.3,60.20177431392194
block2.xlsx,189.1,7.5,3.9,3 x 8,24,12,3 x 8 = 24,small-sized_high-interference,small-sized,high-interference,13,CorrectRESP,a,0,1,1,1,0,13,13,13,,,,,,,,,,,,,,,512.3562587370034,None,512.8563895800035,None,514.8564345760024,None,515.6067998959988,None,515.8565539629999,None,515.8565539629999,None,d,0,0.719022841,515.8565539629999,None,516.6082982099979,None,516.6082982099979,None,d,0.14328802400268614,516.6082982099979,None,516.7732340759976,None,,,,,,,,,,,,,sub-21,31/03/2003,1: Male,15/10/2023,001,1: right,2023_Oct_15_1649,[FINAL]_fmri_multiplication,2021.2.3,60.20177431392194
block2.xlsx,200.5,7.5,2,5 x 6,36,14,5 x 6 = 36,large-sized_low-interference,large-sized,low-interference,6,IncorrectRESP,d,0,1,1,1,0,14,14,14,,,,,,,,,,,,,,,520.6722994189986,None,521.1737960350001,None,523.1738538389982,None,523.9233882800036,None,524.1747386,None,524.1747386,None,a,0,0.6008536750014173,524.1747386,None,524.8067443129985,None,524.8067443129985,None,d,0.080945162,524.8067443129985,None,524.9068336700002,None,,,,,,,,,,,,,sub-21,31/03/2003,1: Male,15/10/2023,001,1: right,2023_Oct_15_1649,[FINAL]_fmri_multiplication,2021.2.3,60.20177431392194
block2.xlsx,210,7.5,8.2,7 x 2,12,1,7 x 2 = 12,small-sized_low-interference,small-sized,low-interference,4,IncorrectRESP,d,0,1,1,1,0,15,15,15,,,,,,,,,,,,,,,526.9064168730038,None,527.4074206119985,None,529.4068715609974,None,530.1570365820007,None,530.4069715160003,None,530.4069715160003,None,d,1,0.7926122689968906,530.4069715160003,None,531.2231214089988,None,531.2231214089988,None,d,0.6085573150048731,531.2231214089988,None,531.8569843,None,,,,,,,,,,,,,sub-21,31/03/2003,1: Male,15/10/2023,001,1: right,2023_Oct_15_1649,[FINAL]_fmri_multiplication,2021.2.3,60.20177431392194
block2.xlsx,225.7,7.5,6.5,9 x 9,81,16,9 x 9 = 81,large-sized_low-interference,large-sized,low-interference,6,CorrectRESP,a,0,1,1,1,0,16,16,16,,,,,,,,,,,,,,,540.0569816780044,None,540.5567015380002,None,542.5567907,None,543.3067732109994,None,543.5567439,None,543.5567439,None,d,0,0.6188194569986081,543.5567439,None,544.2069071459991,None,544.2069071459991,None,d,0.13664484600303695,544.2069071459991,None,544.3735074510041,None,,,,,,,,,,,,,sub-21,31/03/2003,1: Male,15/10/2023,001,1: right,2023_Oct_15_1649,[FINAL]_fmri_multiplication,2021.2.3,60.20177431392194
block2.xlsx,239.7,7.5,6.2,4 x 5,16,8,4 x 5 = 16,small-sized_high-interference,small-sized,high-interference,8,IncorrectRESP,d,0,1,1,1,0,17,17,17,,,,,,,,,,,,,,,550.8732071150007,None,551.3731714,None,553.3737186200015,None,554.1236054070032,None,554.3744201400041,None,554.3744201400041,None,a,0,0.673271758,554.3744201400041,None,555.0692822,None,555.0692822,None,a,0.17024567299813498,555.0692822,None,555.2599041270005,None,,,,,,,,,,,,,sub-21,31/03/2003,1: Male,15/10/2023,001,1: right,2023_Oct_15_1649,[FINAL]_fmri_multiplication,2021.2.3,60.20177431392194
block2.xlsx,253.4,7.5,11.8,8 x 2,16,5,8 x 2 = 16,small-sized_low-interference,small-sized,low-interference,7,CorrectRESP,a,0,1,1,1,0,18,18,18,,,,,,,,,,,,,,,561.4738715940039,None,561.9740239,None,563.9737735809977,None,564.7235907270006,None,564.9733489200007,None,564.9733489200007,None,d,0,0.7223483440029668,564.9733489200007,None,565.7234664610005,None,565.7234664610005,None,d,0.14021380100166425,565.7234664610005,None,565.8902947030001,None,,,,,,,,,,,,,sub-21,31/03/2003,1: Male,15/10/2023,001,1: right,2023_Oct_15_1649,[FINAL]_fmri_multiplication,2021.2.3,60.20177431392194
block2.xlsx,272.7,7.5,3.7,7 x 5,35,17,7 x 5 = 35,large-sized_low-interference,large-sized,low-interference,7,CorrectRESP,a,0,1,1,1,0,19,19,19,,,,,,,,,,,,,,,577.6899141440008,None,578.1900406620043,None,580.1894144739999,None,580.9400235920039,None,581.1903022740007,None,581.1903022740007,None,d,0,0.5373570439987816,581.1903022740007,None,581.7567820199984,None,581.7567820199984,None,d,0.1468159750002087,581.7567820199984,None,581.9230361080045,None,,,,,,,,,,,,,sub-21,31/03/2003,1: Male,15/10/2023,001,1: right,2023_Oct_15_1649,[FINAL]_fmri_multiplication,2021.2.3,60.20177431392194
block2.xlsx,283.9,7.5,6,6 x 3,15,7,6 x 3 = 15,small-sized_high-interference,small-sized,high-interference,8,IncorrectRESP,d,0,1,1,1,0,20,20,20,,,,,,,,,,,,,,,585.6230507319997,None,586.1230933490006,None,588.1231876910024,None,588.8734114949984,None,589.1249083770017,None,589.1249083770017,None,a,0,0.6027850469981786,589.1249083770017,None,589.7570958170036,None,589.7570958170036,None,d,0.11463674800324952,589.7570958170036,None,589.8900703670006,None,,,,,,,,,,,,,sub-21,31/03/2003,1: Male,15/10/2023,001,1: right,2023_Oct_15_1649,[FINAL]_fmri_multiplication,2021.2.3,60.20177431392194
block2.xlsx,297.4,7.5,6.1,9 x 3,24,19,9 x 3 = 24,large-sized_high-interference,large-sized,high-interference,9,IncorrectRESP,d,0,1,1,1,0,21,21,21,,,,,,,,,,,,,,,595.8905465229982,None,596.3907080479985,None,598.3904773100003,None,599.1402609,None,599.3909144100035,None,599.3909144100035,None,a,0,0.6727586960041663,599.3909144100035,None,600.0896667190027,None,600.0896667190027,None,d,0.11790325599577045,600.0896667190027,None,600.2401814289988,None,,,,,,,,,,,,,sub-21,31/03/2003,1: Male,15/10/2023,001,1: right,2023_Oct_15_1649,[FINAL]_fmri_multiplication,2021.2.3,60.20177431392194
block2.xlsx,311,7.5,5.1,4 x 4,16,4,4 x 4 = 16,small-sized_low-interference,small-sized,low-interference,5,CorrectRESP,a,0,1,1,1,0,22,22,22,,,,,,,,,,,,,,,606.3396657550038,None,606.8390112609995,None,608.8396899750005,None,609.5901079690011,None,609.8404330319972,None,609.8404330319972,None,d,0,0.9111382739938563,609.8404330319972,None,610.7730455249985,None,610.7730455249985,None,d,0.1625654969975585,610.7730455249985,None,610.9563447,None,,,,,,,,,,,,,sub-21,31/03/2003,1: Male,15/10/2023,001,1: right,2023_Oct_15_1649,[FINAL]_fmri_multiplication,2021.2.3,60.20177431392194
block2.xlsx,323.6,7.5,3.9,7 x 7,49,18,7 x 7 = 49,large-sized_low-interference,large-sized,low-interference,7,CorrectRESP,a,0,1,1,1,0,23,23,23,,,,,,,,,,,,,,,616.0564144849996,None,616.5569516410033,None,618.5563703060034,None,619.3065464129977,None,619.5570589109993,None,619.5570589109993,None,d,0,0.5305074620046071,619.5570589109993,None,620.1063609780031,None,620.1063609780031,None,d,0.1572913120035082,620.1063609780031,None,620.2898209300038,None,,,,,,,,,,,,,sub-21,31/03/2003,1: Male,15/10/2023,001,1: right,2023_Oct_15_1649,[FINAL]_fmri_multiplication,2021.2.3,60.20177431392194
block2.xlsx,,,,,,,,,,,,,,0,1,1,1,,,,,0,0,0,0,,,,,,,,,,,,,,,,,,,,,,,,,,,,,,,,,,,,,,624.1929694,None,624.1929694,None,,,,,,,,,sub-21,31/03/2003,1: Male,15/10/2023,001,1: right,2023_Oct_15_1649,[FINAL]_fmri_multiplication,2021.2.3,60.20177431392194
block2.xlsx,,,,,,,,,,,,,,0,1,1,1,,,,,1,0,1,0,,,,,,,,,,,,,,,,,,,,,,,,,,,,,,,,,,,,,,625.2042344959991,None,625.2042344959991,None,,,,,,,,,sub-21,31/03/2003,1: Male,15/10/2023,001,1: right,2023_Oct_15_1649,[FINAL]_fmri_multiplication,2021.2.3,60.20177431392194
block2.xlsx,,,,,,,,,,,,,,0,1,1,1,,,,,2,0,2,0,,,,,,,,,,,,,,,,,,,,,,,,,,,,,,,,,,,,,,626.1887736950011,None,626.1887736950011,None,,,,,,,,,sub-21,31/03/2003,1: Male,15/10/2023,001,1: right,2023_Oct_15_1649,[FINAL]_fmri_multiplication,2021.2.3,60.20177431392194
block2.xlsx,,,,,,,,,,,,,,0,1,1,1,,,,,3,0,3,0,,,,,,,,,,,,,,,,,,,,,,,,,,,,,,,,,,,,,,627.1914793680044,627.1914793680044,627.1914793680044,627.1914793680044,,,,,,,,,sub-21,31/03/2003,1: Male,15/10/2023,001,1: right,2023_Oct_15_1649,[FINAL]_fmri_multiplication,2021.2.3,60.20177431392194
block2.xlsx,,,,,,,,,,,,,,0,1,1,1,,,,,4,0,4,0,,,,,,,,,,,,,,,,,,,,,,,,,,,,,,,,,,,,,,628.1915912,628.1915912,628.1915912,628.1915912,,,,,,,,,sub-21,31/03/2003,1: Male,15/10/2023,001,1: right,2023_Oct_15_1649,[FINAL]_fmri_multiplication,2021.2.3,60.20177431392194
block2.xlsx,,,,,,,,,,,,,,0,1,1,1,,,,,5,0,5,0,,,,,,,,,,,,,,,,,,,,,,,,,,,,,,,,,,,,,,629.2099888079974,None,629.2099888079974,None,,,,,,,,,sub-21,31/03/2003,1: Male,15/10/2023,001,1: right,2023_Oct_15_1649,[FINAL]_fmri_multiplication,2021.2.3,60.20177431392194
block2.xlsx,,,,,,,,,,,,,,0,1,1,1,,,,,6,0,6,0,,,,,,,,,,,,,,,,,,,,,,,,,,,,,,,,,,,,,,630.2072215330045,None,630.2072215330045,None,,,,,,,,,sub-21,31/03/2003,1: Male,15/10/2023,001,1: right,2023_Oct_15_1649,[FINAL]_fmri_multiplication,2021.2.3,60.20177431392194
block2.xlsx,,,,,,,,,,,,,,0,1,1,1,,,,,7,0,7,0,,,,,,,,,,,,,,,,,,,,,,,,,,,,,,,,,,,,,,631.2081128749996,None,631.2081128749996,None,,,,,,,,,sub-21,31/03/2003,1: Male,15/10/2023,001,1: right,2023_Oct_15_1649,[FINAL]_fmri_multiplication,2021.2.3,60.20177431392194
block2.xlsx,,,,,,,,,,,,,,0,1,1,1,,,,,8,0,8,0,,,,,,,,,,,,,,,,,,,,,,,,,,,,,,,,,,,,,,632.2079245679997,None,632.2079245679997,None,,,,,,,,,sub-21,31/03/2003,1: Male,15/10/2023,001,1: right,2023_Oct_15_1649,[FINAL]_fmri_multiplication,2021.2.3,60.20177431392194
block2.xlsx,,,,,,,,,,,,,,0,1,1,1,,,,,9,0,9,0,,,,,,,,,,,,,,,,,,,,,,,,,,,,,,,,,,,,,,633.2085209740035,None,633.2085209740035,None,,,,,,,,,sub-21,31/03/2003,1: Male,15/10/2023,001,1: right,2023_Oct_15_1649,[FINAL]_fmri_multiplication,2021.2.3,60.20177431392194
block2.xlsx,,,,,,,,,,,,,,0,1,1,1,,,,,10,0,10,0,,,,,,,,,,,,,,,,,,,,,,,,,,,,,,,,,,,,,,634.2068492530016,None,634.2068492530016,None,,,,,,,,,sub-21,31/03/2003,1: Male,15/10/2023,001,1: right,2023_Oct_15_1649,[FINAL]_fmri_multiplication,2021.2.3,60.20177431392194
block2.xlsx,,,,,,,,,,,,,,0,1,1,1,,,,,11,0,11,0,,,,,,,,,,,,,,,,,,,,,,,,,,,,,,,,,,,,,,635.2065692079996,None,635.2065692079996,None,,,,,,,,,sub-21,31/03/2003,1: Male,15/10/2023,001,1: right,2023_Oct_15_1649,[FINAL]_fmri_multiplication,2021.2.3,60.20177431392194
block2.xlsx,,,,,,,,,,,,,,0,1,1,1,,,,,12,0,12,0,,,,,,,,,,,,,,,,,,,,,,,,,,,,,,,,,,,,,,636.2084936,None,636.2084936,None,,,,,,,,,sub-21,31/03/2003,1: Male,15/10/2023,001,1: right,2023_Oct_15_1649,[FINAL]_fmri_multiplication,2021.2.3,60.20177431392194
block2.xlsx,,,,,,,,,,,,,,0,1,1,1,,,,,13,0,13,0,,,,,,,,,,,,,,,,,,,,,,,,,,,,,,,,,,,,,,637.2073742240027,None,637.2073742240027,None,,,,,,,,,sub-21,31/03/2003,1: Male,15/10/2023,001,1: right,2023_Oct_15_1649,[FINAL]_fmri_multiplication,2021.2.3,60.20177431392194
block2.xlsx,,,,,,,,,,,,,,0,1,1,1,,,,,14,0,14,0,,,,,,,,,,,,,,,,,,,,,,,,,,,,,,,,,,,,,,638.2068263250039,None,638.2068263250039,None,,,,,,,,,sub-21,31/03/2003,1: Male,15/10/2023,001,1: right,2023_Oct_15_1649,[FINAL]_fmri_multiplication,2021.2.3,60.20177431392194
block2.xlsx,,,,,,,,,,,,,,0,1,1,1,,,,,15,0,15,0,,,,,,,,,,,,,,,,,,,,,,,,,,,,,,,,,,,,,,639.2069109590011,None,639.2069109590011,None,,,,,,,,,sub-21,31/03/2003,1: Male,15/10/2023,001,1: right,2023_Oct_15_1649,[FINAL]_fmri_multiplication,2021.2.3,60.20177431392194
block2.xlsx,,,,,,,,,,,,,,0,1,1,1,,,,,16,0,16,0,,,,,,,,,,,,,,,,,,,,,,,,,,,,,,,,,,,,,,640.2075195439975,None,640.2075195439975,None,,,,,,,,,sub-21,31/03/2003,1: Male,15/10/2023,001,1: right,2023_Oct_15_1649,[FINAL]_fmri_multiplication,2021.2.3,60.20177431392194
block2.xlsx,,,,,,,,,,,,,,0,1,1,1,,,,,17,0,17,0,,,,,,,,,,,,,,,,,,,,,,,,,,,,,,,,,,,,,,641.2082367809999,None,641.2082367809999,None,,,,,,,,,sub-21,31/03/2003,1: Male,15/10/2023,001,1: right,2023_Oct_15_1649,[FINAL]_fmri_multiplication,2021.2.3,60.20177431392194
block2.xlsx,,,,,,,,,,,,,,0,1,1,1,,,,,18,0,18,0,,,,,,,,,,,,,,,,,,,,,,,,,,,,,,,,,,,,,,642.2076364050008,None,642.2076364050008,None,,,,,,,,,sub-21,31/03/2003,1: Male,15/10/2023,001,1: right,2023_Oct_15_1649,[FINAL]_fmri_multiplication,2021.2.3,60.20177431392194
block2.xlsx,,,,,,,,,,,,,,0,1,1,1,,,,,19,0,19,0,,,,,,,,,,,,,,,,,,,,,,,,,,,,,,,,,,,,,,643.2074910790034,None,643.2074910790034,None,,,,,,,,,sub-21,31/03/2003,1: Male,15/10/2023,001,1: right,2023_Oct_15_1649,[FINAL]_fmri_multiplication,2021.2.3,60.20177431392194
block2.xlsx,,,,,,,,,,,,,,0,1,1,1,,,,,20,0,20,0,,,,,,,,,,,,,,,,,,,,,,,,,,,,,,,,,,,,,,644.2068655620023,None,644.2068655620023,None,,,,,,,,,sub-21,31/03/2003,1: Male,15/10/2023,001,1: right,2023_Oct_15_1649,[FINAL]_fmri_multiplication,2021.2.3,60.20177431392194
block2.xlsx,,,,,,,,,,,,,,0,1,1,1,,,,,21,0,21,0,,,,,,,,,,,,,,,,,,,,,,,,,,,,,,,,,,,,,,645.2077117259978,None,645.2077117259978,None,,,,,,,,,sub-21,31/03/2003,1: Male,15/10/2023,001,1: right,2023_Oct_15_1649,[FINAL]_fmri_multiplication,2021.2.3,60.20177431392194
block2.xlsx,,,,,,,,,,,,,,0,1,1,1,,,,,22,0,22,0,,,,,,,,,,,,,,,,,,,,,,,,,,,,,,,,,,,,,,646.2069259280033,None,646.2069259280033,None,,,,,,,,,sub-21,31/03/2003,1: Male,15/10/2023,001,1: right,2023_Oct_15_1649,[FINAL]_fmri_multiplication,2021.2.3,60.20177431392194
block2.xlsx,,,,,,,,,,,,,,0,1,1,1,,,,,23,0,23,0,,,,,,,,,,,,,,,,,,,,,,,,,,,,,,,,,,,,,,647.2070627810026,None,647.2070627810026,None,,,,,,,,,sub-21,31/03/2003,1: Male,15/10/2023,001,1: right,2023_Oct_15_1649,[FINAL]_fmri_multiplication,2021.2.3,60.20177431392194
block2.xlsx,,,,,,,,,,,,,,0,1,1,1,,,,,24,0,24,0,,,,,,,,,,,,,,,,,,,,,,,,,,,,,,,,,,,,,,648.2071133860009,None,648.2071133860009,None,,,,,,,,,sub-21,31/03/2003,1: Male,15/10/2023,001,1: right,2023_Oct_15_1649,[FINAL]_fmri_multiplication,2021.2.3,60.20177431392194
block2.xlsx,,,,,,,,,,,,,,0,1,1,1,,,,,25,0,25,0,,,,,,,,,,,,,,,,,,,,,,,,,,,,,,,,,,,,,,649.2067674240025,None,649.2067674240025,None,,,,,,,,,sub-21,31/03/2003,1: Male,15/10/2023,001,1: right,2023_Oct_15_1649,[FINAL]_fmri_multiplication,2021.2.3,60.20177431392194
block2.xlsx,,,,,,,,,,,,,,0,1,1,1,,,,,26,0,26,0,,,,,,,,,,,,,,,,,,,,,,,,,,,,,,,,,,,,,,650.2068520809989,None,650.2068520809989,None,,,,,,,,,sub-21,31/03/2003,1: Male,15/10/2023,001,1: right,2023_Oct_15_1649,[FINAL]_fmri_multiplication,2021.2.3,60.20177431392194
block2.xlsx,,,,,,,,,,,,,,0,1,1,1,,,,,27,0,27,0,,,,,,,,,,,,,,,,,,,,,,,,,,,,,,,,,,,,,,651.2073398330031,None,651.2073398330031,None,,,,,,,,,sub-21,31/03/2003,1: Male,15/10/2023,001,1: right,2023_Oct_15_1649,[FINAL]_fmri_multiplication,2021.2.3,60.20177431392194
block2.xlsx,,,,,,,,,,,,,,0,1,1,1,,,,,28,0,28,0,,,,,,,,,,,,,,,,,,,,,,,,,,,,,,,,,,,,,,652.2074034109974,None,652.2074034109974,None,,,,,,,,,sub-21,31/03/2003,1: Male,15/10/2023,001,1: right,2023_Oct_15_1649,[FINAL]_fmri_multiplication,2021.2.3,60.20177431392194
block2.xlsx,,,,,,,,,,,,,,0,1,1,1,,,,,29,0,29,0,,,,,,,,,,,,,,,,,,,,,,,,,,,,,,,,,,,,,,653.2071145029986,None,653.2071145029986,None,,,,,,,,,sub-21,31/03/2003,1: Male,15/10/2023,001,1: right,2023_Oct_15_1649,[FINAL]_fmri_multiplication,2021.2.3,60.20177431392194
block2.xlsx,,,,,,,,,,,,,,0,1,1,1,,,,,,,,,,,,,,,,,,,,,,,,,,,,,,,,,,,,,,,,,,,,,,,,,,,,,,,,,,sub-21,31/03/2003,1: Male,15/10/2023,001,1: right,2023_Oct_15_1649,[FINAL]_fmri_multiplication,2021.2.3,60.20177431392194
block3.xlsx,10,7.5,5.9,6 x 4,24,10,6 x 4 = 24,small-sized_high-interference,small-sized,high-interference,12,CorrectRESP,a,0,2,2,2,0,0,0,0,,,,,,,,,,,,,654.2085991,None,664.229081,None,664.7071716319988,None,666.7072563,None,667.4569306350022,None,667.7078874459985,None,667.7078874459985,None,d,0,0.5557733640016522,667.7078874459985,None,668.2898905000038,None,668.2898905000038,None,d,0.1577850710018538,668.2898905000038,None,668.4736110509984,None,,,,,,,,,,,,,sub-21,31/03/2003,1: Male,15/10/2023,001,1: right,2023_Oct_15_1649,[FINAL]_fmri_multiplication,2021.2.3,60.20177431392194
block3.xlsx,23.4,7.5,2,6 x 6,30,13,6 x 6 = 30,large-sized_low-interference,large-sized,low-interference,4,IncorrectRESP,d,0,2,2,2,0,1,1,1,,,,,,,,,,,,,,,674.3735264520001,None,674.8732748030016,None,676.8738352750006,None,677.6234998010041,None,677.8735688279994,None,677.8735688279994,None,a,0,0.7019989189939224,677.8735688279994,None,678.6068975250018,None,678.6068975250018,None,d,0.096842828,678.6068975250018,None,678.7230509529982,None,,,,,,,,,,,,,sub-21,31/03/2003,1: Male,15/10/2023,001,1: right,2023_Oct_15_1649,[FINAL]_fmri_multiplication,2021.2.3,60.20177431392194
block3.xlsx,32.9,7.5,3.2,2 x 9,18,2,2 x 9 = 18,small-sized_low-interference,small-sized,low-interference,7,CorrectRESP,a,0,2,2,2,0,2,2,2,,,,,,,,,,,,,,,680.7237339130006,None,681.2241601880014,None,683.2233893529992,None,683.9730132980039,None,684.2235628,None,684.2235628,None,d,0,0.6559889199997997,684.2235628,None,684.9063896860025,None,684.9063896860025,None,d,0.14937657400150783,684.9063896860025,None,685.0734758219987,None,,,,,,,,,,,,,sub-21,31/03/2003,1: Male,15/10/2023,001,1: right,2023_Oct_15_1649,[FINAL]_fmri_multiplication,2021.2.3,60.20177431392194
block3.xlsx,43.6,7.5,6,3 x 4,12,9,3 x 4 = 12,small-sized_high-interference,small-sized,high-interference,10,CorrectRESP,a,0,2,2,2,0,3,3,3,,,,,,,,,,,,,,,688.2729740639988,None,688.7739895019986,None,690.7734856570023,None,691.5231612019998,None,691.7736881739984,None,691.7736881739984,None,d,0,0.4820049359987024,691.7736881739984,None,692.2736495490026,None,692.2736495490026,None,d,0.14193377700576093,692.2736495490026,None,692.4398298040032,None,,,,,,,,,,,,,sub-21,31/03/2003,1: Male,15/10/2023,001,1: right,2023_Oct_15_1649,[FINAL]_fmri_multiplication,2021.2.3,60.20177431392194
block3.xlsx,57.1,7.5,13.3,7 x 5,40,17,7 x 5 = 40,large-sized_low-interference,large-sized,low-interference,7,IncorrectRESP,d,0,2,2,2,0,4,4,4,,,,,,,,,,,,,,,698.4403604820036,None,698.9408927410041,None,700.9405789090015,None,701.6903269399991,None,701.940836,None,701.940836,None,a,0,0.5947553849982796,701.940836,None,702.5565639889974,None,702.5565639889974,None,d,0.075116958,702.5565639889974,None,702.6568797569998,None,,,,,,,,,,,,,sub-21,31/03/2003,1: Male,15/10/2023,001,1: right,2023_Oct_15_1649,[FINAL]_fmri_multiplication,2021.2.3,60.20177431392194
block3.xlsx,77.9,7.5,2,8 x 7,56,22,8 x 7 = 56,large-sized_high-interference,large-sized,high-interference,9,CorrectRESP,a,0,2,2,2,0,5,5,5,,,,,,,,,,,,,,,715.9567511319983,None,716.456912,None,718.4565721990002,None,719.2067085550007,None,719.4572435349983,None,719.4572435349983,None,d,0,0.5103570649953326,719.4572435349983,None,719.9897234070013,None,719.9897234070013,None,d,0.169846562,719.9897234070013,None,720.1901321,None,,,,,,,,,,,,,sub-21,31/03/2003,1: Male,15/10/2023,001,1: right,2023_Oct_15_1649,[FINAL]_fmri_multiplication,2021.2.3,60.20177431392194
block3.xlsx,87.4,7.5,2.6,9 x 9,81,16,9 x 9 = 81,large-sized_low-interference,large-sized,low-interference,6,CorrectRESP,a,0,2,2,2,0,6,6,6,,,,,,,,,,,,,,,722.1900795609981,None,722.6896985540006,None,724.6901470239973,None,725.4396783859993,None,725.6891693189973,None,725.6891693189973,None,d,0,0.44642428799852496,725.6891693189973,None,726.1563804,None,726.1563804,None,d,0.163211005,726.1563804,None,726.3397617009978,None,,,,,,,,,,,,,sub-21,31/03/2003,1: Male,15/10/2023,001,1: right,2023_Oct_15_1649,[FINAL]_fmri_multiplication,2021.2.3,60.20177431392194
block3.xlsx,97.5,7.5,2.7,4 x 5,20,8,4 x 5 = 20,small-sized_high-interference,small-sized,high-interference,8,CorrectRESP,a,0,2,2,2,0,7,7,7,,,,,,,,,,,,,,,728.9400602280002,None,729.4401874739997,None,731.4403262039996,None,732.1905751939994,None,732.4406740810009,None,732.4406740810009,None,d,0,0.5270306290040025,732.4406740810009,None,732.9901066360035,None,732.9901066360035,None,d,0.16945199899782892,732.9901066360035,None,733.1905747100027,None,,,,,,,,,,,,,sub-21,31/03/2003,1: Male,15/10/2023,001,1: right,2023_Oct_15_1649,[FINAL]_fmri_multiplication,2021.2.3,60.20177431392194
block3.xlsx,107.7,7.5,8.4,9 x 3,24,19,9 x 3 = 24,large-sized_high-interference,large-sized,high-interference,9,IncorrectRESP,d,0,2,2,2,0,8,8,8,,,,,,,,,,,,,,,735.8901212729979,None,736.3908229880035,None,738.3905314069998,None,739.1406801830017,None,739.3906042730014,None,739.3906042730014,None,a,0,0.5849615859988262,739.3906042730014,None,740.0064930410008,None,740.0064930410008,None,d,0.049210354,740.0064930410008,None,740.0730770950031,None,,,,,,,,,,,,,sub-21,31/03/2003,1: Male,15/10/2023,001,1: right,2023_Oct_15_1649,[FINAL]_fmri_multiplication,2021.2.3,60.20177431392194
block3.xlsx,123.6,7.5,2.2,9 x 5,45,15,9 x 5 = 45,large-sized_low-interference,large-sized,low-interference,6,CorrectRESP,a,0,2,2,2,0,9,9,9,,,,,,,,,,,,,,,748.4736764589979,None,748.9737114599993,None,750.9734574260001,None,751.7231689010005,None,751.9739915460013,None,751.9739915460013,None,d,0,0.4817516500042984,751.9739915460013,None,752.4732841680016,None,752.4732841680016,None,d,0.1664202780011692,752.4732841680016,None,752.6567385,None,,,,,,,,,,,,,sub-21,31/03/2003,1: Male,15/10/2023,001,1: right,2023_Oct_15_1649,[FINAL]_fmri_multiplication,2021.2.3,60.20177431392194
block3.xlsx,133.3,7.5,9.7,4 x 4,16,4,4 x 4 = 16,small-sized_low-interference,small-sized,low-interference,5,CorrectRESP,a,0,2,2,2,0,10,10,10,,,,,,,,,,,,,,,754.8560127840028,None,755.3562405109988,None,757.3567460260019,None,758.1067888180041,None,758.3567895930028,None,758.3567895930028,None,d,0,0.6188049199990928,758.3567895930028,None,759.0063760280027,None,759.0063760280027,None,d,0.14521928500471404,759.0063760280027,None,759.1730213390038,None,,,,,,,,,,,,,sub-21,31/03/2003,1: Male,15/10/2023,001,1: right,2023_Oct_15_1649,[FINAL]_fmri_multiplication,2021.2.3,60.20177431392194
block3.xlsx,150.5,7.5,5.4,8 x 4,28,24,8 x 4 = 28,large-sized_high-interference,large-sized,high-interference,25,IncorrectRESP,d,0,2,2,2,0,11,11,11,,,,,,,,,,,,,,,768.8738801,None,769.3739879269997,None,771.3739245,None,772.1238691769977,None,772.3748352760012,None,772.3748352760012,None,a,0,0.5607291779961088,772.3748352760012,None,772.9566663459991,None,772.9566663459991,None,d,0.050940861998242326,772.9566663459991,None,773.0405018160018,None,,,,,,,,,,,,,sub-21,31/03/2003,1: Male,15/10/2023,001,1: right,2023_Oct_15_1649,[FINAL]_fmri_multiplication,2021.2.3,60.20177431392194
block3.xlsx,163.4,7.5,10.5,8 x 2,18,5,8 x 2 = 18,small-sized_low-interference,small-sized,low-interference,7,IncorrectRESP,d,0,2,2,2,0,12,12,12,,,,,,,,,,,,,,,778.4402733899988,None,778.9410188149996,None,780.9404181659993,None,781.6901961230033,None,781.9401021930025,None,781.9401021930025,None,a,0,0.6034701199969277,781.9401021930025,None,782.5731701129989,None,782.5731701129989,None,d,0.10650331299984828,782.5731701129989,None,782.7054075609994,None,,,,,,,,,,,,,sub-21,31/03/2003,1: Male,15/10/2023,001,1: right,2023_Oct_15_1649,[FINAL]_fmri_multiplication,2021.2.3,60.20177431392194
block3.xlsx,181.4,7.5,3.5,7 x 6,48,23,7 x 6 = 48,large-sized_high-interference,large-sized,high-interference,22,IncorrectRESP,d,0,2,2,2,0,13,13,13,,,,,,,,,,,,,,,793.2068772850034,None,793.7063347779986,None,795.7068179780035,None,796.4567824379992,None,796.7062056799987,None,796.7062056799987,None,a,0,0.5494823439948959,796.7062056799987,None,797.2733124320002,None,797.2733124320002,None,d,0.078271432,797.2733124320002,None,797.3731371719987,None,,,,,,,,,,,,,sub-21,31/03/2003,1: Male,15/10/2023,001,1: right,2023_Oct_15_1649,[FINAL]_fmri_multiplication,2021.2.3,60.20177431392194
block3.xlsx,192.4,7.5,11.8,5 x 6,30,14,5 x 6 = 30,large-sized_low-interference,large-sized,low-interference,6,CorrectRESP,a,0,2,2,2,0,14,14,14,,,,,,,,,,,,,,,800.8738403669995,None,801.3738555239979,None,803.3740086,None,804.1238951,None,804.3742821889973,None,804.3742821889973,None,d,0,0.6893271400040248,804.3742821889973,None,805.0904150830029,None,805.0904150830029,None,d,0.15715077600179939,805.0904150830029,None,805.2736993770013,None,,,,,,,,,,,,,sub-21,31/03/2003,1: Male,15/10/2023,001,1: right,2023_Oct_15_1649,[FINAL]_fmri_multiplication,2021.2.3,60.20177431392194
block3.xlsx,211.7,7.5,3.7,4 x 9,36,20,4 x 9 = 36,large-sized_high-interference,large-sized,high-interference,9,CorrectRESP,a,0,2,2,2,0,15,15,15,,,,,,,,,,,,,,,817.0733485570017,None,817.5736595,None,819.5735468210041,None,820.3233766150006,None,820.5741222920042,None,820.5741222920042,None,d,0,0.5534500110006775,820.5741222920042,None,821.1556913719978,None,821.1556913719978,None,d,0.1638863050029613,821.1556913719978,None,821.3397120169975,None,,,,,,,,,,,,,sub-21,31/03/2003,1: Male,15/10/2023,001,1: right,2023_Oct_15_1649,[FINAL]_fmri_multiplication,2021.2.3,60.20177431392194
block3.xlsx,222.9,7.5,2.5,7 x 7,56,18,7 x 7 = 56,large-sized_low-interference,large-sized,low-interference,7,IncorrectRESP,d,0,2,2,2,0,16,16,16,,,,,,,,,,,,,,,825.0400479890013,None,825.5399891589987,None,827.5401940169977,None,828.2901217670005,None,828.5405994,None,828.5405994,None,a,0,0.5152171379959327,828.5405994,None,829.0735081059975,None,829.0735081059975,None,d,0.070050359,829.0735081059975,None,829.1735402850027,None,,,,,,,,,,,,,sub-21,31/03/2003,1: Male,15/10/2023,001,1: right,2023_Oct_15_1649,[FINAL]_fmri_multiplication,2021.2.3,60.20177431392194
block3.xlsx,232.9,7.5,9,6 x 3,15,7,6 x 3 = 15,small-sized_high-interference,small-sized,high-interference,8,IncorrectRESP,d,0,2,2,2,0,17,17,17,,,,,,,,,,,,,,,831.6734795189986,None,832.1734037,None,834.1735203440039,None,834.9235895,None,835.1743529,None,835.1743529,None,a,0,0.7533588450023672,835.1743529,None,835.9570024380009,None,835.9570024380009,None,d,0.074665222,835.9570024380009,None,836.0569152160024,None,,,,,,,,,,,,,sub-21,31/03/2003,1: Male,15/10/2023,001,1: right,2023_Oct_15_1649,[FINAL]_fmri_multiplication,2021.2.3,60.20177431392194
block3.xlsx,249.4,7.5,9.5,7 x 2,12,1,7 x 2 = 12,small-sized_low-interference,small-sized,low-interference,4,IncorrectRESP,d,0,2,2,2,0,18,18,18,,,,,,,,,,,,,,,845.0569145230038,None,845.5572601,None,847.5569635720021,None,848.3067733190037,None,848.5567196769989,None,848.5567196769989,None,a,0,0.5229358520009555,848.5567196769989,None,849.1064767,None,849.1064767,None,d,0.085096393,849.1064767,None,849.2231628,None,,,,,,,,,,,,,sub-21,31/03/2003,1: Male,15/10/2023,001,1: right,2023_Oct_15_1649,[FINAL]_fmri_multiplication,2021.2.3,60.20177431392194
block3.xlsx,266.4,7.5,11.1,5 x 8,40,21,5 x 8 = 40,large-sized_high-interference,large-sized,high-interference,9,CorrectRESP,a,0,2,2,2,0,19,19,19,,,,,,,,,,,,,,,858.7234581800003,None,859.2239399579994,None,861.2233001620043,None,861.9734108609991,None,862.2235718739976,None,862.2235718739976,None,d,0,0.5919912769968505,862.2235718739976,None,862.8397810140013,None,862.8397810140013,None,d,0.1677827570019872,862.8397810140013,None,863.0396283500013,None,,,,,,,,,,,,,sub-21,31/03/2003,1: Male,15/10/2023,001,1: right,2023_Oct_15_1649,[FINAL]_fmri_multiplication,2021.2.3,60.20177431392194
block3.xlsx,285,7.5,3.8,3 x 8,21,12,3 x 8 = 21,small-sized_high-interference,small-sized,high-interference,13,IncorrectRESP,d,0,2,2,2,0,20,20,20,,,,,,,,,,,,,,,874.1405869869996,None,874.6407481700007,None,876.6405406170015,None,877.3901158,None,877.6403882,None,877.6403882,None,a,0,0.7031862090007053,877.6403882,None,878.3737698640034,None,878.3737698640034,None,d,0.0659189,878.3737698640034,None,878.4569439650004,None,,,,,,,,,,,,,sub-21,31/03/2003,1: Male,15/10/2023,001,1: right,2023_Oct_15_1649,[FINAL]_fmri_multiplication,2021.2.3,60.20177431392194
block3.xlsx,296.3,7.5,11.2,5 x 5,25,3,5 x 5 = 25,small-sized_low-interference,small-sized,low-interference,3,CorrectRESP,a,0,2,2,2,0,21,21,21,,,,,,,,,,,,,,,882.2568439079987,None,882.7567063759998,None,884.7568101080033,None,885.5067975620041,None,885.7570450610001,None,885.7570450610001,None,a,1,0.554611167,885.7570450610001,None,886.3399925260019,None,886.3399925260019,None,d,0.7316790660042898,886.3399925260019,None,887.0896344110006,None,,,,,,,,,,,,,sub-21,31/03/2003,1: Male,15/10/2023,001,1: right,2023_Oct_15_1649,[FINAL]_fmri_multiplication,2021.2.3,60.20177431392194
block3.xlsx,315,7.5,2.6,7 x 3,24,11,7 x 3 = 24,small-sized_high-interference,small-sized,high-interference,13,IncorrectRESP,d,0,2,2,2,0,22,22,22,,,,,,,,,,,,,,,898.2899168,None,898.7902517320035,None,900.7901549950038,None,901.5397486340007,None,901.7903719500027,None,901.7903719500027,None,a,0,0.6733063040010165,901.7903719500027,None,902.4895736160033,None,902.4895736160033,None,d,0.078077577,902.4895736160033,None,902.5898484,None,,,,,,,,,,,,,sub-21,31/03/2003,1: Male,15/10/2023,001,1: right,2023_Oct_15_1649,[FINAL]_fmri_multiplication,2021.2.3,60.20177431392194
block3.xlsx,325.1,7.5,2.4,6 x 2,10,6,6 x 2 = 10,small-sized_low-interference,small-sized,low-interference,3,IncorrectRESP,d,0,2,2,2,0,23,23,23,,,,,,,,,,,,,,,905.1902990000017,None,905.6902734520045,None,907.6904963639972,None,908.4404032270031,None,908.6910568719977,None,908.6910568719977,None,a,0,0.5406099450046895,908.6910568719977,None,909.2566072,None,909.2566072,None,d,0.070974954,909.2566072,None,909.3563836390022,None,,,,,,,,,,,,,sub-21,31/03/2003,1: Male,15/10/2023,001,1: right,2023_Oct_15_1649,[FINAL]_fmri_multiplication,2021.2.3,60.20177431392194
block3.xlsx,,,,,,,,,,,,,,0,2,2,2,,,,,0,0,0,0,,,,,,,,,,,,,,,,,,,,,,,,,,,,,,,,,,,,,,911.7585517670013,None,911.7585517670013,None,,,,,,,,,sub-21,31/03/2003,1: Male,15/10/2023,001,1: right,2023_Oct_15_1649,[FINAL]_fmri_multiplication,2021.2.3,60.20177431392194
block3.xlsx,,,,,,,,,,,,,,0,2,2,2,,,,,1,0,1,0,,,,,,,,,,,,,,,,,,,,,,,,,,,,,,,,,,,,,,912.7738431090038,None,912.7738431090038,None,,,,,,,,,sub-21,31/03/2003,1: Male,15/10/2023,001,1: right,2023_Oct_15_1649,[FINAL]_fmri_multiplication,2021.2.3,60.20177431392194
block3.xlsx,,,,,,,,,,,,,,0,2,2,2,,,,,2,0,2,0,,,,,,,,,,,,,,,,,,,,,,,,,,,,,,,,,,,,,,913.7746840489999,None,913.7746840489999,None,,,,,,,,,sub-21,31/03/2003,1: Male,15/10/2023,001,1: right,2023_Oct_15_1649,[FINAL]_fmri_multiplication,2021.2.3,60.20177431392194
block3.xlsx,,,,,,,,,,,,,,0,2,2,2,,,,,3,0,3,0,,,,,,,,,,,,,,,,,,,,,,,,,,,,,,,,,,,,,,914.7745123130007,None,914.7745123130007,None,,,,,,,,,sub-21,31/03/2003,1: Male,15/10/2023,001,1: right,2023_Oct_15_1649,[FINAL]_fmri_multiplication,2021.2.3,60.20177431392194
block3.xlsx,,,,,,,,,,,,,,0,2,2,2,,,,,4,0,4,0,,,,,,,,,,,,,,,,,,,,,,,,,,,,,,,,,,,,,,915.7734622720018,None,915.7734622720018,None,,,,,,,,,sub-21,31/03/2003,1: Male,15/10/2023,001,1: right,2023_Oct_15_1649,[FINAL]_fmri_multiplication,2021.2.3,60.20177431392194
block3.xlsx,,,,,,,,,,,,,,0,2,2,2,,,,,5,0,5,0,,,,,,,,,,,,,,,,,,,,,,,,,,,,,,,,,,,,,,916.7737502370001,None,916.7737502370001,None,,,,,,,,,sub-21,31/03/2003,1: Male,15/10/2023,001,1: right,2023_Oct_15_1649,[FINAL]_fmri_multiplication,2021.2.3,60.20177431392194
block3.xlsx,,,,,,,,,,,,,,0,2,2,2,,,,,6,0,6,0,,,,,,,,,,,,,,,,,,,,,,,,,,,,,,,,,,,,,,917.7734631639978,None,917.7734631639978,None,,,,,,,,,sub-21,31/03/2003,1: Male,15/10/2023,001,1: right,2023_Oct_15_1649,[FINAL]_fmri_multiplication,2021.2.3,60.20177431392194
block3.xlsx,,,,,,,,,,,,,,0,2,2,2,,,,,7,0,7,0,,,,,,,,,,,,,,,,,,,,,,,,,,,,,,,,,,,,,,918.7741191910027,None,918.7741191910027,None,,,,,,,,,sub-21,31/03/2003,1: Male,15/10/2023,001,1: right,2023_Oct_15_1649,[FINAL]_fmri_multiplication,2021.2.3,60.20177431392194
block3.xlsx,,,,,,,,,,,,,,0,2,2,2,,,,,8,0,8,0,,,,,,,,,,,,,,,,,,,,,,,,,,,,,,,,,,,,,,919.7735688,None,919.7735688,None,,,,,,,,,sub-21,31/03/2003,1: Male,15/10/2023,001,1: right,2023_Oct_15_1649,[FINAL]_fmri_multiplication,2021.2.3,60.20177431392194
block3.xlsx,,,,,,,,,,,,,,0,2,2,2,,,,,9,0,9,0,,,,,,,,,,,,,,,,,,,,,,,,,,,,,,,,,,,,,,920.7742034879993,None,920.7742034879993,None,,,,,,,,,sub-21,31/03/2003,1: Male,15/10/2023,001,1: right,2023_Oct_15_1649,[FINAL]_fmri_multiplication,2021.2.3,60.20177431392194
block3.xlsx,,,,,,,,,,,,,,0,2,2,2,,,,,10,0,10,0,,,,,,,,,,,,,,,,,,,,,,,,,,,,,,,,,,,,,,921.7742257080026,None,921.7742257080026,None,,,,,,,,,sub-21,31/03/2003,1: Male,15/10/2023,001,1: right,2023_Oct_15_1649,[FINAL]_fmri_multiplication,2021.2.3,60.20177431392194
block3.xlsx,,,,,,,,,,,,,,0,2,2,2,,,,,11,0,11,0,,,,,,,,,,,,,,,,,,,,,,,,,,,,,,,,,,,,,,922.7737180980039,None,922.7737180980039,None,,,,,,,,,sub-21,31/03/2003,1: Male,15/10/2023,001,1: right,2023_Oct_15_1649,[FINAL]_fmri_multiplication,2021.2.3,60.20177431392194
block3.xlsx,,,,,,,,,,,,,,0,2,2,2,,,,,12,0,12,0,,,,,,,,,,,,,,,,,,,,,,,,,,,,,,,,,,,,,,923.7736251259994,None,923.7736251259994,None,,,,,,,,,sub-21,31/03/2003,1: Male,15/10/2023,001,1: right,2023_Oct_15_1649,[FINAL]_fmri_multiplication,2021.2.3,60.20177431392194
block3.xlsx,,,,,,,,,,,,,,0,2,2,2,,,,,13,0,13,0,,,,,,,,,,,,,,,,,,,,,,,,,,,,,,,,,,,,,,924.7743428,None,924.7743428,None,,,,,,,,,sub-21,31/03/2003,1: Male,15/10/2023,001,1: right,2023_Oct_15_1649,[FINAL]_fmri_multiplication,2021.2.3,60.20177431392194
block3.xlsx,,,,,,,,,,,,,,0,2,2,2,,,,,14,0,14,0,,,,,,,,,,,,,,,,,,,,,,,,,,,,,,,,,,,,,,925.7739125900043,None,925.7739125900043,None,,,,,,,,,sub-21,31/03/2003,1: Male,15/10/2023,001,1: right,2023_Oct_15_1649,[FINAL]_fmri_multiplication,2021.2.3,60.20177431392194
block3.xlsx,,,,,,,,,,,,,,0,2,2,2,,,,,15,0,15,0,,,,,,,,,,,,,,,,,,,,,,,,,,,,,,,,,,,,,,926.7739754520007,None,926.7739754520007,None,,,,,,,,,sub-21,31/03/2003,1: Male,15/10/2023,001,1: right,2023_Oct_15_1649,[FINAL]_fmri_multiplication,2021.2.3,60.20177431392194
block3.xlsx,,,,,,,,,,,,,,0,2,2,2,,,,,16,0,16,0,,,,,,,,,,,,,,,,,,,,,,,,,,,,,,,,,,,,,,927.7743198320022,None,927.7743198320022,None,,,,,,,,,sub-21,31/03/2003,1: Male,15/10/2023,001,1: right,2023_Oct_15_1649,[FINAL]_fmri_multiplication,2021.2.3,60.20177431392194
block3.xlsx,,,,,,,,,,,,,,0,2,2,2,,,,,17,0,17,0,,,,,,,,,,,,,,,,,,,,,,,,,,,,,,,,,,,,,,928.7742027670029,None,928.7742027670029,None,,,,,,,,,sub-21,31/03/2003,1: Male,15/10/2023,001,1: right,2023_Oct_15_1649,[FINAL]_fmri_multiplication,2021.2.3,60.20177431392194
block3.xlsx,,,,,,,,,,,,,,0,2,2,2,,,,,18,0,18,0,,,,,,,,,,,,,,,,,,,,,,,,,,,,,,,,,,,,,,929.7740726920019,None,929.7740726920019,None,,,,,,,,,sub-21,31/03/2003,1: Male,15/10/2023,001,1: right,2023_Oct_15_1649,[FINAL]_fmri_multiplication,2021.2.3,60.20177431392194
block3.xlsx,,,,,,,,,,,,,,0,2,2,2,,,,,19,0,19,0,,,,,,,,,,,,,,,,,,,,,,,,,,,,,,,,,,,,,,930.7748290500022,None,930.7748290500022,None,,,,,,,,,sub-21,31/03/2003,1: Male,15/10/2023,001,1: right,2023_Oct_15_1649,[FINAL]_fmri_multiplication,2021.2.3,60.20177431392194
block3.xlsx,,,,,,,,,,,,,,0,2,2,2,,,,,20,0,20,0,,,,,,,,,,,,,,,,,,,,,,,,,,,,,,,,,,,,,,931.7741586,None,931.7741586,None,,,,,,,,,sub-21,31/03/2003,1: Male,15/10/2023,001,1: right,2023_Oct_15_1649,[FINAL]_fmri_multiplication,2021.2.3,60.20177431392194
block3.xlsx,,,,,,,,,,,,,,0,2,2,2,,,,,21,0,21,0,,,,,,,,,,,,,,,,,,,,,,,,,,,,,,,,,,,,,,932.7736002290039,None,932.7736002290039,None,,,,,,,,,sub-21,31/03/2003,1: Male,15/10/2023,001,1: right,2023_Oct_15_1649,[FINAL]_fmri_multiplication,2021.2.3,60.20177431392194
block3.xlsx,,,,,,,,,,,,,,0,2,2,2,,,,,22,0,22,0,,,,,,,,,,,,,,,,,,,,,,,,,,,,,,,,,,,,,,933.7737383990025,None,933.7737383990025,None,,,,,,,,,sub-21,31/03/2003,1: Male,15/10/2023,001,1: right,2023_Oct_15_1649,[FINAL]_fmri_multiplication,2021.2.3,60.20177431392194
block3.xlsx,,,,,,,,,,,,,,0,2,2,2,,,,,23,0,23,0,,,,,,,,,,,,,,,,,,,,,,,,,,,,,,,,,,,,,,934.7760348,None,934.7760348,None,,,,,,,,,sub-21,31/03/2003,1: Male,15/10/2023,001,1: right,2023_Oct_15_1649,[FINAL]_fmri_multiplication,2021.2.3,60.20177431392194
block3.xlsx,,,,,,,,,,,,,,0,2,2,2,,,,,24,0,24,0,,,,,,,,,,,,,,,,,,,,,,,,,,,,,,,,,,,,,,935.7744667160005,None,935.7744667160005,None,,,,,,,,,sub-21,31/03/2003,1: Male,15/10/2023,001,1: right,2023_Oct_15_1649,[FINAL]_fmri_multiplication,2021.2.3,60.20177431392194
block3.xlsx,,,,,,,,,,,,,,0,2,2,2,,,,,25,0,25,0,,,,,,,,,,,,,,,,,,,,,,,,,,,,,,,,,,,,,,936.7734866140017,None,936.7734866140017,None,,,,,,,,,sub-21,31/03/2003,1: Male,15/10/2023,001,1: right,2023_Oct_15_1649,[FINAL]_fmri_multiplication,2021.2.3,60.20177431392194
block3.xlsx,,,,,,,,,,,,,,0,2,2,2,,,,,26,0,26,0,,,,,,,,,,,,,,,,,,,,,,,,,,,,,,,,,,,,,,937.7738863970008,None,937.7738863970008,None,,,,,,,,,sub-21,31/03/2003,1: Male,15/10/2023,001,1: right,2023_Oct_15_1649,[FINAL]_fmri_multiplication,2021.2.3,60.20177431392194
block3.xlsx,,,,,,,,,,,,,,0,2,2,2,,,,,27,0,27,0,,,,,,,,,,,,,,,,,,,,,,,,,,,,,,,,,,,,,,938.7738836209974,None,938.7738836209974,None,,,,,,,,,sub-21,31/03/2003,1: Male,15/10/2023,001,1: right,2023_Oct_15_1649,[FINAL]_fmri_multiplication,2021.2.3,60.20177431392194
block3.xlsx,,,,,,,,,,,,,,0,2,2,2,,,,,28,0,28,0,,,,,,,,,,,,,,,,,,,,,,,,,,,,,,,,,,,,,,939.7751560390025,None,939.7751560390025,None,,,,,,,,,sub-21,31/03/2003,1: Male,15/10/2023,001,1: right,2023_Oct_15_1649,[FINAL]_fmri_multiplication,2021.2.3,60.20177431392194
block3.xlsx,,,,,,,,,,,,,,0,2,2,2,,,,,29,0,29,0,,,,,,,,,,,,,,,,,,,,,,,,,,,,,,,,,,,,,,940.7760365510039,None,940.7760365510039,None,,,,,,,,,sub-21,31/03/2003,1: Male,15/10/2023,001,1: right,2023_Oct_15_1649,[FINAL]_fmri_multiplication,2021.2.3,60.20177431392194
block3.xlsx,,,,,,,,,,,,,,0,2,2,2,,,,,,,,,,,,,,,,,,,,,,,,,,,,,,,,,,,,,,,,,,,,,,,,,,,,,,,,,,sub-21,31/03/2003,1: Male,15/10/2023,001,1: right,2023_Oct_15_1649,[FINAL]_fmri_multiplication,2021.2.3,60.20177431392194
block4.xlsx,10,7.5,8.4,5 x 6,36,14,5 x 6 = 36,large-sized_low-interference,large-sized,low-interference,6,IncorrectRESP,d,0,3,3,3,0,0,0,0,,,,,,,,,,,,,941.7662096569984,None,951.7944560329997,None,952.2729669,None,954.2734242110018,None,955.0234474710014,None,955.2735681420017,None,955.2735681420017,None,a,0,0.726013748,955.2735681420017,None,956.0229230570039,None,956.0229230570039,None,d,0.080770938,956.0229230570039,None,956.1224276030043,None,,,,,,,,,,,,,sub-21,31/03/2003,1: Male,15/10/2023,001,1: right,2023_Oct_15_1649,[FINAL]_fmri_multiplication,2021.2.3,60.20177431392194
block4.xlsx,25.9,7.5,2.6,6 x 2,12,6,6 x 2 = 12,small-sized_low-interference,small-sized,low-interference,3,CorrectRESP,a,0,3,3,3,0,1,1,1,,,,,,,,,,,,,,,964.5233037520011,None,965.023293,None,967.0229739979986,None,967.7734228620029,None,968.0235686279993,None,968.0235686279993,None,a,1,0.5680258240026888,968.0235686279993,None,968.6237454580041,None,968.6237454580041,None,d,0.5358185180011787,968.6237454580041,None,969.1896097080025,None,,,,,,,,,,,,,sub-21,31/03/2003,1: Male,15/10/2023,001,1: right,2023_Oct_15_1649,[FINAL]_fmri_multiplication,2021.2.3,60.20177431392194
block4.xlsx,36,7.5,3.8,8 x 4,32,24,8 x 4 = 32,large-sized_high-interference,large-sized,high-interference,25,CorrectRESP,a,0,3,3,3,0,2,2,2,,,,,,,,,,,,,,,971.7900858709982,None,972.2901400310002,None,974.2902556850022,None,975.0400674230041,None,975.2908323130032,None,975.2908323130032,None,d,0,0.7167521669980488,975.2908323130032,None,976.0403122749995,None,976.0403122749995,None,d,0.46333316800155444,976.0403122749995,None,976.5232377830034,None,,,,,,,,,,,,,sub-21,31/03/2003,1: Male,15/10/2023,001,1: right,2023_Oct_15_1649,[FINAL]_fmri_multiplication,2021.2.3,60.20177431392194
block4.xlsx,47.3,7.5,3.8,9 x 5,40,15,9 x 5 = 40,large-sized_low-interference,large-sized,low-interference,6,IncorrectRESP,d,0,3,3,3,0,3,3,3,,,,,,,,,,,,,,,980.3238582,None,980.8242889469984,None,982.8236362219977,None,983.5739636,None,983.8239775050024,None,983.8239775050024,None,a,0,0.8317132739975932,983.8239775050024,None,984.6735452369976,None,984.6735452369976,None,d,0.086020723,984.6735452369976,None,984.7899598820004,None,,,,,,,,,,,,,sub-21,31/03/2003,1: Male,15/10/2023,001,1: right,2023_Oct_15_1649,[FINAL]_fmri_multiplication,2021.2.3,60.20177431392194
block4.xlsx,58.6,7.5,4.4,6 x 3,18,7,6 x 3 = 18,small-sized_high-interference,small-sized,high-interference,8,CorrectRESP,a,0,3,3,3,0,4,4,4,,,,,,,,,,,,,,,988.5901392790038,None,989.0897416,None,991.0899315940042,None,991.8402372140044,None,992.0896996390002,None,992.0896996390002,None,d,0,0.5338785630010534,992.0896996390002,None,992.6400444190003,None,992.6400444190003,None,d,0.1515182930015726,992.6400444190003,None,992.8234154,None,,,,,,,,,,,,,sub-21,31/03/2003,1: Male,15/10/2023,001,1: right,2023_Oct_15_1649,[FINAL]_fmri_multiplication,2021.2.3,60.20177431392194
block4.xlsx,70.5,7.5,2.6,4 x 9,32,20,4 x 9 = 32,large-sized_high-interference,large-sized,high-interference,9,IncorrectRESP,d,0,3,3,3,0,5,5,5,,,,,,,,,,,,,,,997.2232747559974,None,997.7235194320019,None,999.7234747429975,None,1000.4730224110026,None,1000.7233833389982,None,1000.7233833389982,None,a,0,0.5562170819976018,1000.7233833389982,None,1001.3065190380003,None,1001.3065190380003,None,d,0.061086203,1001.3065190380003,None,1001.3900372249991,None,,,,,,,,,,,,,sub-21,31/03/2003,1: Male,15/10/2023,001,1: right,2023_Oct_15_1649,[FINAL]_fmri_multiplication,2021.2.3,60.20177431392194
block4.xlsx,80.6,7.5,9.4,3 x 4,15,9,3 x 4 = 15,small-sized_high-interference,small-sized,high-interference,10,IncorrectRESP,d,0,3,3,3,0,6,6,6,,,,,,,,,,,,,,,1003.9895573899994,None,1004.4914773050041,None,1006.5068153180036,None,1007.2567722599997,None,1007.5065194700001,None,1007.5065194700001,None,a,0,0.6530487259951769,1007.5065194700001,None,1008.1896809399987,None,1008.1896809399987,None,d,0.05801354,1008.1896809399987,None,1008.2731581780026,None,,,,,,,,,,,,,sub-21,31/03/2003,1: Male,15/10/2023,001,1: right,2023_Oct_15_1649,[FINAL]_fmri_multiplication,2021.2.3,60.20177431392194
block4.xlsx,97.5,7.5,6,6 x 6,36,13,6 x 6 = 36,large-sized_low-interference,large-sized,low-interference,4,CorrectRESP,a,0,3,3,3,0,7,7,7,,,,,,,,,,,,,,,1017.6728118629981,None,1018.173891,None,1020.1737087369984,None,1020.9231148550025,None,1021.1734632549997,None,1021.1734632549997,None,d,0,0.5541596289986046,1021.1734632549997,None,1021.7561958890001,None,1021.7561958890001,None,d,0.13950166300492128,1021.7561958890001,None,1021.9234468080031,None,,,,,,,,,,,,,sub-21,31/03/2003,1: Male,15/10/2023,001,1: right,2023_Oct_15_1649,[FINAL]_fmri_multiplication,2021.2.3,60.20177431392194
block4.xlsx,111,7.5,5.8,7 x 6,42,23,7 x 6 = 42,large-sized_high-interference,large-sized,high-interference,22,CorrectRESP,a,0,3,3,3,0,8,8,8,,,,,,,,,,,,,,,1027.9229570040043,None,1028.4234498200021,None,1030.4233782169977,None,1031.173008662001,None,1031.4230818170035,None,1031.4230818170035,None,d,0,0.5764904230018146,1031.4230818170035,None,1032.0230368519988,None,1032.0230368519988,None,d,0.14462232400546782,1032.0230368519988,None,1032.1897265959997,None,,,,,,,,,,,,,sub-21,31/03/2003,1: Male,15/10/2023,001,1: right,2023_Oct_15_1649,[FINAL]_fmri_multiplication,2021.2.3,60.20177431392194
block4.xlsx,124.3,7.5,3.6,6 x 4,28,10,6 x 4 = 28,small-sized_high-interference,small-sized,high-interference,12,IncorrectRESP,d,0,3,3,3,0,9,9,9,,,,,,,,,,,,,,,1037.9896844649993,None,1038.4902192790032,None,1040.4898689850015,None,1041.2401840189996,None,1041.4903195980005,None,1041.4903195980005,None,a,0,0.6133001330017578,1041.4903195980005,None,1042.1230087910008,None,1042.1230087910008,None,d,0.060585819999687374,1042.1230087910008,None,1042.2064383550023,None,,,,,,,,,,,,,sub-21,31/03/2003,1: Male,15/10/2023,001,1: right,2023_Oct_15_1649,[FINAL]_fmri_multiplication,2021.2.3,60.20177431392194
block4.xlsx,135.4,7.5,9.3,5 x 5,30,3,5 x 5 = 30,small-sized_low-interference,small-sized,low-interference,3,IncorrectRESP,d,0,3,3,3,0,10,10,10,,,,,,,,,,,,,,,1045.8069969810022,None,1046.3069562989986,None,1048.3072181940006,None,1049.0572468140017,None,1049.3077045840037,None,1049.3077045840037,None,a,0,0.611872036,1049.3077045840037,None,1049.940073,None,1049.940073,None,d,0.06751627,1049.940073,None,1050.0403267900037,None,,,,,,,,,,,,,sub-21,31/03/2003,1: Male,15/10/2023,001,1: right,2023_Oct_15_1649,[FINAL]_fmri_multiplication,2021.2.3,60.20177431392194
block4.xlsx,152.2,7.5,9.8,7 x 3,21,11,7 x 3 = 21,small-sized_high-interference,small-sized,high-interference,13,CorrectRESP,a,0,3,3,3,0,11,11,11,,,,,,,,,,,,,,,1059.3401043480044,None,1059.8402706760025,None,1061.8401342049983,None,1062.5902464570026,None,1062.8399532629992,None,1062.8399532629992,None,d,0,0.5516267940038233,1062.8399532629992,None,1063.4234634770037,None,1063.4234634770037,None,d,0.15210250800009817,1063.4234634770037,None,1063.6068875389974,None,,,,,,,,,,,,,sub-21,31/03/2003,1: Male,15/10/2023,001,1: right,2023_Oct_15_1649,[FINAL]_fmri_multiplication,2021.2.3,60.20177431392194
block4.xlsx,169.5,7.5,12.8,9 x 9,72,16,9 x 9 = 72,large-sized_low-interference,large-sized,low-interference,6,IncorrectRESP,d,0,3,3,3,0,12,12,12,,,,,,,,,,,,,,,1073.4064028159992,None,1073.9068803219998,None,1075.906789808003,None,1076.6566560959982,None,1076.9072403480022,None,1076.9072403480022,None,a,0,0.5163457649978227,1076.9072403480022,None,1077.4563706560002,None,1077.4563706560002,None,d,0.023247065000759903,1077.4563706560002,None,1077.5065961790024,None,,,,,,,,,,,,,sub-21,31/03/2003,1: Male,15/10/2023,001,1: right,2023_Oct_15_1649,[FINAL]_fmri_multiplication,2021.2.3,60.20177431392194
block4.xlsx,189.8,7.5,8.9,4 x 4,20,4,4 x 4 = 20,small-sized_low-interference,small-sized,low-interference,5,IncorrectRESP,d,0,3,3,3,0,13,13,13,,,,,,,,,,,,,,,1090.3071255000032,None,1090.8079397050024,None,1092.8241250799983,None,1093.5734082780036,None,1093.8233277020045,None,1093.8233277020045,None,a,0,0.5362463389974437,1093.8233277020045,None,1094.3902627880016,None,1094.3902627880016,None,d,0.049383596997358836,1094.3902627880016,None,1094.4567898509995,None,,,,,,,,,,,,,sub-21,31/03/2003,1: Male,15/10/2023,001,1: right,2023_Oct_15_1649,[FINAL]_fmri_multiplication,2021.2.3,60.20177431392194
block4.xlsx,206.2,7.5,2.4,5 x 8,45,21,5 x 8 = 45,large-sized_high-interference,large-sized,high-interference,9,IncorrectRESP,d,0,3,3,3,0,14,14,14,,,,,,,,,,,,,,,1103.356792313003,None,1103.8567857189992,None,1105.856746163001,None,1106.6068254929996,None,1106.8570468129983,None,1106.8570468129983,None,a,0,0.7265427800011821,1106.8570468129983,None,1107.6063662029992,None,1107.6063662029992,None,d,0.049294522,1107.6063662029992,None,1107.6731174410015,None,,,,,,,,,,,,,sub-21,31/03/2003,1: Male,15/10/2023,001,1: right,2023_Oct_15_1649,[FINAL]_fmri_multiplication,2021.2.3,60.20177431392194
block4.xlsx,216.1,7.5,14,8 x 2,16,5,8 x 2 = 16,small-sized_low-interference,small-sized,low-interference,7,CorrectRESP,a,0,3,3,3,0,15,15,15,,,,,,,,,,,,,,,1110.0733763030003,None,1110.5737230710001,None,1112.573505,None,1113.3231104779989,None,1113.5737876999992,None,1113.5737876999992,None,a,1,0.681887208,1113.5737876999992,None,1114.2733465700003,None,1114.2733465700003,None,d,0.614261451,1114.2733465700003,None,1114.9065841249976,None,,,,,,,,,,,,,sub-21,31/03/2003,1: Male,15/10/2023,001,1: right,2023_Oct_15_1649,[FINAL]_fmri_multiplication,2021.2.3,60.20177431392194
block4.xlsx,237.6,7.5,5.2,7 x 5,35,17,7 x 5 = 35,large-sized_low-interference,large-sized,low-interference,7,CorrectRESP,a,0,3,3,3,0,16,16,16,,,,,,,,,,,,,,,1128.9068379399978,None,1129.406731273004,None,1131.4069807609994,None,1132.1567051710008,None,1132.4068438090035,None,1132.4068438090035,None,d,0,0.5926851920012268,1132.4068438090035,None,1133.023038778003,None,1133.023038778003,None,d,0.1446213150047697,1133.023038778003,None,1133.189703668002,None,,,,,,,,,,,,,sub-21,31/03/2003,1: Male,15/10/2023,001,1: right,2023_Oct_15_1649,[FINAL]_fmri_multiplication,2021.2.3,60.20177431392194
block4.xlsx,250.3,7.5,9.6,8 x 7,63,22,8 x 7 = 63,large-sized_high-interference,large-sized,high-interference,9,IncorrectRESP,d,0,3,3,3,0,17,17,17,,,,,,,,,,,,,,,1138.3901687519974,None,1138.890402226003,None,1140.8902399279978,None,1141.6400666980044,None,1141.890320794002,None,1141.890320794002,None,a,0,0.6213311679966864,1141.890320794002,None,1142.540146225001,None,1142.540146225001,None,d,0.027460611003334634,1142.540146225001,None,1142.5899926839993,None,,,,,,,,,,,,,sub-21,31/03/2003,1: Male,15/10/2023,001,1: right,2023_Oct_15_1649,[FINAL]_fmri_multiplication,2021.2.3,60.20177431392194
block4.xlsx,267.4,7.5,2.6,2 x 9,16,2,2 x 9 = 16,small-sized_low-interference,small-sized,low-interference,7,IncorrectRESP,d,0,3,3,3,0,18,18,18,,,,,,,,,,,,,,,1152.1902566089993,None,1152.7070514220031,None,1154.7068102060002,None,1155.4572476760004,None,1155.707118049002,None,1155.707118049002,None,a,0,0.8524483839937602,1155.707118049002,None,1156.5916532109986,None,1156.5916532109986,None,d,0.9120524280006066,1156.5916532109986,None,1157.523482868004,None,,,,,,,,,,,,,sub-21,31/03/2003,1: Male,15/10/2023,001,1: right,2023_Oct_15_1649,[FINAL]_fmri_multiplication,2021.2.3,60.20177431392194
block4.xlsx,277.5,7.5,2.3,9 x 3,27,19,9 x 3 = 27,large-sized_high-interference,large-sized,high-interference,9,CorrectRESP,a,0,3,3,3,0,19,19,19,,,,,,,,,,,,,,,1160.1233083059997,None,1160.624186660003,None,1162.6235041660038,None,1163.3735820479997,None,1163.624338223999,None,1163.624338223999,None,d,0,0.6153718249988742,1163.624338223999,None,1164.2566745509976,None,1164.2566745509976,None,d,0.15888767399883363,1164.2566745509976,None,1164.4398601010034,None,,,,,,,,,,,,,sub-21,31/03/2003,1: Male,15/10/2023,001,1: right,2023_Oct_15_1649,[FINAL]_fmri_multiplication,2021.2.3,60.20177431392194
block4.xlsx,287.3,7.5,3.1,4 x 5,16,8,4 x 5 = 16,small-sized_high-interference,small-sized,high-interference,8,IncorrectRESP,d,0,3,3,3,0,20,20,20,,,,,,,,,,,,,,,1166.7395803679974,None,1167.2403251750002,None,1169.240057,None,1169.990234372999,None,1170.240078,None,1170.240078,None,a,0,0.6715922150033293,1170.240078,None,1170.9400988089983,None,1170.9400988089983,None,d,0.075470024,1170.9400988089983,None,1171.0402173090042,None,,,,,,,,,,,,,sub-21,31/03/2003,1: Male,15/10/2023,001,1: right,2023_Oct_15_1649,[FINAL]_fmri_multiplication,2021.2.3,60.20177431392194
block4.xlsx,297.9,7.5,2.7,7 x 7,49,18,7 x 7 = 49,large-sized_low-interference,large-sized,low-interference,7,CorrectRESP,a,0,3,3,3,0,21,21,21,,,,,,,,,,,,,,,1174.1401312419985,None,1174.6566157889974,None,1176.6566481870032,None,1177.406648791999,None,1177.6568184889984,None,1177.6568184889984,None,d,0,0.5988797009995324,1177.6568184889984,None,1178.2732758810016,None,1178.2732758810016,None,d,0.15839760599919828,1178.2732758810016,None,1178.4564029090034,None,,,,,,,,,,,,,sub-21,31/03/2003,1: Male,15/10/2023,001,1: right,2023_Oct_15_1649,[FINAL]_fmri_multiplication,2021.2.3,60.20177431392194
block4.xlsx,308.1,7.5,4.8,7 x 2,14,1,7 x 2 = 14,small-sized_low-interference,small-sized,low-interference,4,CorrectRESP,a,0,3,3,3,0,22,22,22,,,,,,,,,,,,,,,1181.1563929620024,None,1181.6569644480041,None,1183.6568881380008,None,1184.4065605959986,None,1184.6580894759973,None,1184.6580894759973,None,d,0,0.6455852350045461,1184.6580894759973,None,1185.3232656480031,None,1185.3232656480031,None,d,0.14847151899448363,1185.3232656480031,None,1185.4898963759988,None,,,,,,,,,,,,,sub-21,31/03/2003,1: Male,15/10/2023,001,1: right,2023_Oct_15_1649,[FINAL]_fmri_multiplication,2021.2.3,60.20177431392194
block4.xlsx,320.4,7.5,7.1,3 x 8,24,12,3 x 8 = 24,small-sized_high-interference,small-sized,high-interference,13,CorrectRESP,a,0,3,3,3,0,23,23,23,,,,,,,,,,,,,,,1190.2906063830014,None,1190.8061805260004,None,1192.8071891729996,None,1193.5571747030044,None,1193.807081801002,None,1193.807081801002,None,d,0,0.5605599400005303,1193.807081801002,None,1194.3900227749982,None,1194.3900227749982,None,d,0.1535443140019197,1194.3900227749982,None,1194.5737766050006,None,,,,,,,,,,,,,sub-21,31/03/2003,1: Male,15/10/2023,001,1: right,2023_Oct_15_1649,[FINAL]_fmri_multiplication,2021.2.3,60.20177431392194
block4.xlsx,,,,,,,,,,,,,,0,3,3,3,,,,,0,0,0,0,,,,,,,,,,,,,,,,,,,,,,,,,,,,,,,,,,,,,,1201.6732890260027,None,1201.6732890260027,None,,,,,,,,,sub-21,31/03/2003,1: Male,15/10/2023,001,1: right,2023_Oct_15_1649,[FINAL]_fmri_multiplication,2021.2.3,60.20177431392194
block4.xlsx,,,,,,,,,,,,,,0,3,3,3,,,,,1,0,1,0,,,,,,,,,,,,,,,,,,,,,,,,,,,,,,,,,,,,,,1202.6736102560026,1202.6736102560026,1202.6736102560026,1202.6736102560026,,,,,,,,,sub-21,31/03/2003,1: Male,15/10/2023,001,1: right,2023_Oct_15_1649,[FINAL]_fmri_multiplication,2021.2.3,60.20177431392194
block4.xlsx,,,,,,,,,,,,,,0,3,3,3,,,,,2,0,2,0,,,,,,,,,,,,,,,,,,,,,,,,,,,,,,,,,,,,,,1203.6748273609992,1203.6748273609992,1203.6748273609992,1203.6748273609992,,,,,,,,,sub-21,31/03/2003,1: Male,15/10/2023,001,1: right,2023_Oct_15_1649,[FINAL]_fmri_multiplication,2021.2.3,60.20177431392194
block4.xlsx,,,,,,,,,,,,,,0,3,3,3,,,,,3,0,3,0,,,,,,,,,,,,,,,,,,,,,,,,,,,,,,,,,,,,,,1204.6897352470041,None,1204.6897352470041,None,,,,,,,,,sub-21,31/03/2003,1: Male,15/10/2023,001,1: right,2023_Oct_15_1649,[FINAL]_fmri_multiplication,2021.2.3,60.20177431392194
block4.xlsx,,,,,,,,,,,,,,0,3,3,3,,,,,4,0,4,0,,,,,,,,,,,,,,,,,,,,,,,,,,,,,,,,,,,,,,1205.690204,None,1205.690204,None,,,,,,,,,sub-21,31/03/2003,1: Male,15/10/2023,001,1: right,2023_Oct_15_1649,[FINAL]_fmri_multiplication,2021.2.3,60.20177431392194
block4.xlsx,,,,,,,,,,,,,,0,3,3,3,,,,,5,0,5,0,,,,,,,,,,,,,,,,,,,,,,,,,,,,,,,,,,,,,,1206.6900564730022,None,1206.6900564730022,None,,,,,,,,,sub-21,31/03/2003,1: Male,15/10/2023,001,1: right,2023_Oct_15_1649,[FINAL]_fmri_multiplication,2021.2.3,60.20177431392194
block4.xlsx,,,,,,,,,,,,,,0,3,3,3,,,,,6,0,6,0,,,,,,,,,,,,,,,,,,,,,,,,,,,,,,,,,,,,,,1207.6902715890028,None,1207.6902715890028,None,,,,,,,,,sub-21,31/03/2003,1: Male,15/10/2023,001,1: right,2023_Oct_15_1649,[FINAL]_fmri_multiplication,2021.2.3,60.20177431392194
block4.xlsx,,,,,,,,,,,,,,0,3,3,3,,,,,7,0,7,0,,,,,,,,,,,,,,,,,,,,,,,,,,,,,,,,,,,,,,1208.689977533999,None,1208.689977533999,None,,,,,,,,,sub-21,31/03/2003,1: Male,15/10/2023,001,1: right,2023_Oct_15_1649,[FINAL]_fmri_multiplication,2021.2.3,60.20177431392194
block4.xlsx,,,,,,,,,,,,,,0,3,3,3,,,,,8,0,8,0,,,,,,,,,,,,,,,,,,,,,,,,,,,,,,,,,,,,,,1209.691289,None,1209.691289,None,,,,,,,,,sub-21,31/03/2003,1: Male,15/10/2023,001,1: right,2023_Oct_15_1649,[FINAL]_fmri_multiplication,2021.2.3,60.20177431392194
block4.xlsx,,,,,,,,,,,,,,0,3,3,3,,,,,9,0,9,0,,,,,,,,,,,,,,,,,,,,,,,,,,,,,,,,,,,,,,1210.690024153002,None,1210.690024153002,None,,,,,,,,,sub-21,31/03/2003,1: Male,15/10/2023,001,1: right,2023_Oct_15_1649,[FINAL]_fmri_multiplication,2021.2.3,60.20177431392194
block4.xlsx,,,,,,,,,,,,,,0,3,3,3,,,,,10,0,10,0,,,,,,,,,,,,,,,,,,,,,,,,,,,,,,,,,,,,,,1211.6906942709975,None,1211.6906942709975,None,,,,,,,,,sub-21,31/03/2003,1: Male,15/10/2023,001,1: right,2023_Oct_15_1649,[FINAL]_fmri_multiplication,2021.2.3,60.20177431392194
block4.xlsx,,,,,,,,,,,,,,0,3,3,3,,,,,11,0,11,0,,,,,,,,,,,,,,,,,,,,,,,,,,,,,,,,,,,,,,1212.6898651090014,None,1212.6898651090014,None,,,,,,,,,sub-21,31/03/2003,1: Male,15/10/2023,001,1: right,2023_Oct_15_1649,[FINAL]_fmri_multiplication,2021.2.3,60.20177431392194
block4.xlsx,,,,,,,,,,,,,,0,3,3,3,,,,,12,0,12,0,,,,,,,,,,,,,,,,,,,,,,,,,,,,,,,,,,,,,,1213.690557009002,None,1213.690557009002,None,,,,,,,,,sub-21,31/03/2003,1: Male,15/10/2023,001,1: right,2023_Oct_15_1649,[FINAL]_fmri_multiplication,2021.2.3,60.20177431392194
block4.xlsx,,,,,,,,,,,,,,0,3,3,3,,,,,13,0,13,0,,,,,,,,,,,,,,,,,,,,,,,,,,,,,,,,,,,,,,1214.6904379390035,None,1214.6904379390035,None,,,,,,,,,sub-21,31/03/2003,1: Male,15/10/2023,001,1: right,2023_Oct_15_1649,[FINAL]_fmri_multiplication,2021.2.3,60.20177431392194
block4.xlsx,,,,,,,,,,,,,,0,3,3,3,,,,,14,0,14,0,,,,,,,,,,,,,,,,,,,,,,,,,,,,,,,,,,,,,,1215.7041679590038,None,1215.7041679590038,None,,,,,,,,,sub-21,31/03/2003,1: Male,15/10/2023,001,1: right,2023_Oct_15_1649,[FINAL]_fmri_multiplication,2021.2.3,60.20177431392194
block4.xlsx,,,,,,,,,,,,,,0,3,3,3,,,,,15,0,15,0,,,,,,,,,,,,,,,,,,,,,,,,,,,,,,,,,,,,,,1216.6925378410015,None,1216.6925378410015,None,,,,,,,,,sub-21,31/03/2003,1: Male,15/10/2023,001,1: right,2023_Oct_15_1649,[FINAL]_fmri_multiplication,2021.2.3,60.20177431392194
block4.xlsx,,,,,,,,,,,,,,0,3,3,3,,,,,16,0,16,0,,,,,,,,,,,,,,,,,,,,,,,,,,,,,,,,,,,,,,1217.6914428550008,None,1217.6914428550008,None,,,,,,,,,sub-21,31/03/2003,1: Male,15/10/2023,001,1: right,2023_Oct_15_1649,[FINAL]_fmri_multiplication,2021.2.3,60.20177431392194
block4.xlsx,,,,,,,,,,,,,,0,3,3,3,,,,,17,0,17,0,,,,,,,,,,,,,,,,,,,,,,,,,,,,,,,,,,,,,,1218.6911693130023,None,1218.6911693130023,None,,,,,,,,,sub-21,31/03/2003,1: Male,15/10/2023,001,1: right,2023_Oct_15_1649,[FINAL]_fmri_multiplication,2021.2.3,60.20177431392194
block4.xlsx,,,,,,,,,,,,,,0,3,3,3,,,,,18,0,18,0,,,,,,,,,,,,,,,,,,,,,,,,,,,,,,,,,,,,,,1219.6929081380003,None,1219.6929081380003,None,,,,,,,,,sub-21,31/03/2003,1: Male,15/10/2023,001,1: right,2023_Oct_15_1649,[FINAL]_fmri_multiplication,2021.2.3,60.20177431392194
block4.xlsx,,,,,,,,,,,,,,0,3,3,3,,,,,19,0,19,0,,,,,,,,,,,,,,,,,,,,,,,,,,,,,,,,,,,,,,1220.691278778002,None,1220.691278778002,None,,,,,,,,,sub-21,31/03/2003,1: Male,15/10/2023,001,1: right,2023_Oct_15_1649,[FINAL]_fmri_multiplication,2021.2.3,60.20177431392194
block4.xlsx,,,,,,,,,,,,,,0,3,3,3,,,,,20,0,20,0,,,,,,,,,,,,,,,,,,,,,,,,,,,,,,,,,,,,,,1221.6912956349988,None,1221.6912956349988,None,,,,,,,,,sub-21,31/03/2003,1: Male,15/10/2023,001,1: right,2023_Oct_15_1649,[FINAL]_fmri_multiplication,2021.2.3,60.20177431392194
block4.xlsx,,,,,,,,,,,,,,0,3,3,3,,,,,21,0,21,0,,,,,,,,,,,,,,,,,,,,,,,,,,,,,,,,,,,,,,1222.6907337349985,None,1222.6907337349985,None,,,,,,,,,sub-21,31/03/2003,1: Male,15/10/2023,001,1: right,2023_Oct_15_1649,[FINAL]_fmri_multiplication,2021.2.3,60.20177431392194
block4.xlsx,,,,,,,,,,,,,,0,3,3,3,,,,,22,0,22,0,,,,,,,,,,,,,,,,,,,,,,,,,,,,,,,,,,,,,,1223.6925944480026,None,1223.6925944480026,None,,,,,,,,,sub-21,31/03/2003,1: Male,15/10/2023,001,1: right,2023_Oct_15_1649,[FINAL]_fmri_multiplication,2021.2.3,60.20177431392194
block4.xlsx,,,,,,,,,,,,,,0,3,3,3,,,,,23,0,23,0,,,,,,,,,,,,,,,,,,,,,,,,,,,,,,,,,,,,,,1224.6920712920037,None,1224.6920712920037,None,,,,,,,,,sub-21,31/03/2003,1: Male,15/10/2023,001,1: right,2023_Oct_15_1649,[FINAL]_fmri_multiplication,2021.2.3,60.20177431392194
block4.xlsx,,,,,,,,,,,,,,0,3,3,3,,,,,24,0,24,0,,,,,,,,,,,,,,,,,,,,,,,,,,,,,,,,,,,,,,1225.6908862700002,None,1225.6908862700002,None,,,,,,,,,sub-21,31/03/2003,1: Male,15/10/2023,001,1: right,2023_Oct_15_1649,[FINAL]_fmri_multiplication,2021.2.3,60.20177431392194
block4.xlsx,,,,,,,,,,,,,,0,3,3,3,,,,,25,0,25,0,,,,,,,,,,,,,,,,,,,,,,,,,,,,,,,,,,,,,,1226.6924180920032,None,1226.6924180920032,None,,,,,,,,,sub-21,31/03/2003,1: Male,15/10/2023,001,1: right,2023_Oct_15_1649,[FINAL]_fmri_multiplication,2021.2.3,60.20177431392194
block4.xlsx,,,,,,,,,,,,,,0,3,3,3,,,,,26,0,26,0,,,,,,,,,,,,,,,,,,,,,,,,,,,,,,,,,,,,,,1227.6907899770013,None,1227.6907899770013,None,,,,,,,,,sub-21,31/03/2003,1: Male,15/10/2023,001,1: right,2023_Oct_15_1649,[FINAL]_fmri_multiplication,2021.2.3,60.20177431392194
block4.xlsx,,,,,,,,,,,,,,0,3,3,3,,,,,27,0,27,0,,,,,,,,,,,,,,,,,,,,,,,,,,,,,,,,,,,,,,1228.6903278859972,None,1228.6903278859972,None,,,,,,,,,sub-21,31/03/2003,1: Male,15/10/2023,001,1: right,2023_Oct_15_1649,[FINAL]_fmri_multiplication,2021.2.3,60.20177431392194
block4.xlsx,,,,,,,,,,,,,,0,3,3,3,,,,,28,0,28,0,,,,,,,,,,,,,,,,,,,,,,,,,,,,,,,,,,,,,,1229.6908607689984,None,1229.6908607689984,None,,,,,,,,,sub-21,31/03/2003,1: Male,15/10/2023,001,1: right,2023_Oct_15_1649,[FINAL]_fmri_multiplication,2021.2.3,60.20177431392194
block4.xlsx,,,,,,,,,,,,,,0,3,3,3,,,,,29,0,29,0,,,,,,,,,,,,,,,,,,,,,,,,,,,,,,,,,,,,,,1230.690711549003,None,1230.690711549003,None,,,,,,,,,sub-21,31/03/2003,1: Male,15/10/2023,001,1: right,2023_Oct_15_1649,[FINAL]_fmri_multiplication,2021.2.3,60.20177431392194
block4.xlsx,,,,,,,,,,,,,,0,3,3,3,,,,,,,,,,,,,,,,,,,,,,,,,,,,,,,,,,,,,,,,,,,,,,,,,,,,,,,,,,sub-21,31/03/2003,1: Male,15/10/2023,001,1: right,2023_Oct_15_1649,[FINAL]_fmri_multiplication,2021.2.3,60.20177431392194
,,,,,,,,,,,,,,,,,,,,,,,,,,,,,,,,,,,,,,,,,,,,,,,,,,,,,,,,,,,,,,,,,,,1231.6899298889984,1233.6907908860012,1233.6734297970033,None,y,446.729787,1233.6734297970033,None,sub-21,31/03/2003,1: Male,15/10/2023,001,1: right,2023_Oct_15_1649,[FINAL]_fmri_multiplication,2021.2.3,60.20177431392194