blocks_file,start,dur,rest,mult_problemB,mult_options,stim_trial,mult_stim,type,ProblemSize,InterferenceLH,InterferenceLevel,mult_type,corrRESP,blocks_set.thisRepN,blocks_set.thisTrialN,blocks_set.thisN,blocks_set.thisIndex,TRIALS.thisRepN,TRIALS.thisTrialN,TRIALS.thisN,TRIALS.thisIndex,timer_loop.thisRepN,timer_loop.thisTrialN,timer_loop.thisN,timer_loop.thisIndex,WAIT_TEXT.started,WAIT_TEXT.stopped,scan_start_trigger.keys,scan_start_trigger.rt,scan_start_trigger.started,scan_start_trigger.stopped,MAIN_SCREEN.started,MAIN_SCREEN.stopped,Block_Text.started,Block_Text.stopped,asterisk500ms.started,asterisk500ms.stopped,mult_question_text.started,mult_question_text.stopped,equal_text.started,equal_text.stopped,blank250_text.started,blank250_text.stopped,Mult_OPTION.started,Mult_OPTION.stopped,Mult_YN.started,Mult_YN.stopped,Mult_Resp.keys,Mult_Resp.corr,Mult_Resp.rt,Mult_Resp.started,Mult_Resp.stopped,Strategy_Q.started,Strategy_Q.stopped,Strategy_Option.started,Strategy_Option.stopped,Strategy_RESP.keys,Strategy_RESP.rt,Strategy_RESP.started,Strategy_RESP.stopped,jitters.started,jitters.stopped,resting_text.started,resting_text.stopped,countdown_timer.started,countdown_timer.stopped,End_Text.started,End_Text.stopped,fixation.started,fixation.stopped,fixation_end.keys,fixation_end.rt,fixation_end.started,fixation_end.stopped,participant,Date of birth (DD/MM/YEAR),gender,Testing Date (DD/MM/YEAR),session,handedness,date,expName,psychopyVersion,frameRate
,,,,,,,,,,,,,,,,,,,,,,,,,,32.37723499600179,None,s,25.834271259998786,32.37723499600179,None,,,,,,,,,,,,,,,,,,,,,,,,,,,,,,,,,,,,,,,,,,,,sub-18,30/07/2001,1: Male,14/10/2023,002,1: right,2023_Oct_14_1735,[FINAL]_fmri_multiplication,2021.2.3,60.04622598751384
block5.xlsx,10,7.5,4.6,3 x 6,18,7,6 x 3 = 18,small-sized_high-interference,small-sized,high-interference,8,CorrectRESP,a,0,0,0,0,0,0,0,0,,,,,,,,,,,58.24209089299984,None,63.26347038599852,None,73.28306853300091,None,73.76191766000193,None,75.75874351400125,None,76.50860395999916,None,76.76127405200168,None,76.76127405200168,None,d,0,0.6450755779987958,76.76127405200168,None,77.42580127900146,None,77.42580127900146,None,d,0.6045676070025365,77.42580127900146,None,78.05806777399994,None,,,,,,,,,,,,,sub-18,30/07/2001,1: Male,14/10/2023,002,1: right,2023_Oct_14_1735,[FINAL]_fmri_multiplication,2021.2.3,60.04622598751384
block5.xlsx,22.1,7.5,7,9 x 9,72,16,9 x 9 = 72,large-sized_low-interference,large-sized,low-interference,6,IncorrectRESP,d,0,0,0,0,0,1,1,1,,,,,,,,,,,,,,,82.65940435,None,83.16198805300155,None,85.17595837499903,None,85.92647333900095,None,86.17817514900162,None,86.17817514900162,None,a,0,0.7480887259989686,86.17817514900162,None,86.94298543100012,None,86.94298543100012,None,d,0.6393933760009531,86.94298543100012,None,87.60936866100019,None,,,,,,,,,,,,,sub-18,30/07/2001,1: Male,14/10/2023,002,1: right,2023_Oct_14_1735,[FINAL]_fmri_multiplication,2021.2.3,60.04622598751384
block5.xlsx,36.6,7.5,4.4,2 x 6,12,6,6 x 2 = 12,small-sized_low-interference,small-sized,low-interference,3,CorrectRESP,a,0,0,0,0,0,2,2,2,,,,,,,,,,,,,,,94.60994519000087,None,95.10905914,None,97.10946577800132,None,97.85938608500146,None,98.10926499800189,None,98.10926499800189,None,d,0,0.8971002940015751,98.10926499800189,None,99.02527902,None,99.02527902,None,d,0.5409918069999549,99.02527902,None,99.59225728,None,,,,,,,,,,,,,sub-18,30/07/2001,1: Male,14/10/2023,002,1: right,2023_Oct_14_1735,[FINAL]_fmri_multiplication,2021.2.3,60.04622598751384
block5.xlsx,48.5,7.5,9.6,8 x 3,24,12,3 x 8 = 24,small-sized_high-interference,small-sized,high-interference,13,CorrectRESP,a,0,0,0,0,0,3,3,3,,,,,,,,,,,,,,,103.99256561400034,None,104.49227807699936,None,106.49254900899905,None,107.24256305699964,None,107.49242378300187,None,107.49242378300187,None,d,0,0.6898422339982062,107.49242378300187,None,108.2089218450019,None,108.2089218450019,None,d,0.28537000800133683,108.2089218450019,None,108.52588398100124,None,,,,,,,,,,,,,sub-18,30/07/2001,1: Male,14/10/2023,002,1: right,2023_Oct_14_1735,[FINAL]_fmri_multiplication,2021.2.3,60.04622598751384
block5.xlsx,65.6,7.5,5.4,5 x 5,30,3,5 x 5 = 30,small-sized_low-interference,small-sized,low-interference,3,IncorrectRESP,d,0,0,0,0,0,4,4,4,,,,,,,,,,,,,,,118.12607335000212,None,118.62721730200064,None,120.62304871100059,None,121.36486523200074,None,121.61298393800098,None,121.61298393800098,None,a,0,0.6813061559987545,121.61298393800098,None,122.32643247500164,None,122.32643247500164,None,d,0.2958959209972818,122.32643247500164,None,122.64251244200204,None,,,,,,,,,,,,,sub-18,30/07/2001,1: Male,14/10/2023,002,1: right,2023_Oct_14_1735,[FINAL]_fmri_multiplication,2021.2.3,60.04622598751384
block5.xlsx,78.5,7.5,7.7,3 x 9,27,19,9 x 3 = 27,large-sized_high-interference,large-sized,high-interference,9,CorrectRESP,a,0,0,0,0,0,5,5,5,,,,,,,,,,,,,,,128.04285614900073,None,128.54274628200073,None,130.54271283300113,None,131.2922019329999,None,131.54254001400113,None,131.54254001400113,None,d,0,0.7356805210001767,131.54254001400113,None,132.30922102000113,None,132.30922102000113,None,d,0.617035241,132.30922102000113,None,132.95893540600082,None,,,,,,,,,,,,,sub-18,30/07/2001,1: Male,14/10/2023,002,1: right,2023_Oct_14_1735,[FINAL]_fmri_multiplication,2021.2.3,60.04622598751384
block5.xlsx,93.7,7.5,3.5,2 x 8,18,5,8 x 2 = 18,small-sized_low-interference,small-sized,low-interference,7,IncorrectRESP,d,0,0,0,0,0,6,6,6,,,,,,,,,,,,,,,140.6591956759985,None,141.1591928179987,None,143.15930070000104,None,143.90916881299927,None,144.15904604599928,None,144.15904604599928,None,a,0,0.639296233,144.15904604599928,None,144.82421917100146,None,144.82421917100146,None,d,0.20612384700143593,144.82421917100146,None,145.05885249800122,None,,,,,,,,,,,,,sub-18,30/07/2001,1: Male,14/10/2023,002,1: right,2023_Oct_14_1735,[FINAL]_fmri_multiplication,2021.2.3,60.04622598751384
block5.xlsx,104.7,7.5,6.4,7 x 7,49,18,7 x 7 = 49,large-sized_low-interference,large-sized,low-interference,7,CorrectRESP,a,0,0,0,0,0,7,7,7,,,,,,,,,,,,,,,148.55922076299976,None,149.0587188390018,None,151.05934816700028,None,151.80935927500104,None,152.05971852199946,None,152.05971852199946,None,d,0,0.5386501429966302,152.05971852199946,None,152.62578585899973,None,152.62578585899973,None,d,0.6284990420026588,152.62578585899973,None,153.27574858699882,None,,,,,,,,,,,,,sub-18,30/07/2001,1: Male,14/10/2023,002,1: right,2023_Oct_14_1735,[FINAL]_fmri_multiplication,2021.2.3,60.04622598751384
block5.xlsx,118.6,7.5,3.2,8 x 5,45,21,5 x 8 = 45,large-sized_high-interference,large-sized,high-interference,9,IncorrectRESP,d,0,0,0,0,0,8,8,8,,,,,,,,,,,,,,,159.67280884700085,None,160.17633410200142,None,162.17602153400003,None,162.9262471180009,None,163.17540052299955,None,163.17540052299955,None,a,0,0.7268863190001866,163.17540052299955,None,163.92549178099944,None,163.92549178099944,None,d,0.7048858099988138,163.92549178099944,None,164.6594722539994,None,,,,,,,,,,,,,sub-18,30/07/2001,1: Male,14/10/2023,002,1: right,2023_Oct_14_1735,[FINAL]_fmri_multiplication,2021.2.3,60.04622598751384
block5.xlsx,129.3,7.5,6.8,5 x 4,20,8,4 x 5 = 20,small-sized_high-interference,small-sized,high-interference,8,CorrectRESP,a,0,0,0,0,0,9,9,9,,,,,,,,,,,,,,,167.8592631499996,None,168.35903066299943,None,170.35945233500024,None,171.10922262299937,None,171.35937590699905,None,171.35937590699905,None,d,0,0.5909286239984795,171.35937590699905,None,171.9754724509985,None,171.9754724509985,None,d,0.60692074,171.9754724509985,None,172.6090865340011,None,,,,,,,,,,,,,sub-18,30/07/2001,1: Male,14/10/2023,002,1: right,2023_Oct_14_1735,[FINAL]_fmri_multiplication,2021.2.3,60.04622598751384
block5.xlsx,143.6,7.5,5.5,6 x 5,30,14,5 x 6 = 30,large-sized_low-interference,large-sized,low-interference,6,CorrectRESP,a,0,0,0,0,0,10,10,10,,,,,,,,,,,,,,,179.4087743300006,None,179.9093697499993,None,181.90919539400056,None,182.65919910400044,None,182.90888175600048,None,182.90888175600048,None,d,0,0.569393352,182.90888175600048,None,183.50782789200093,None,183.50782789200093,None,d,0.1864338539999153,183.50782789200093,None,183.72663372999887,None,,,,,,,,,,,,,sub-18,30/07/2001,1: Male,14/10/2023,002,1: right,2023_Oct_14_1735,[FINAL]_fmri_multiplication,2021.2.3,60.04622598751384
block5.xlsx,156.6,7.5,6,3 x 7,24,11,7 x 3 = 24,small-sized_high-interference,small-sized,high-interference,13,IncorrectRESP,d,0,0,0,0,0,11,11,11,,,,,,,,,,,,,,,189.22606521299895,None,189.7430566260009,None,191.74303312499978,None,192.49296145900007,None,192.74349588300174,None,192.74349588300174,None,a,0,0.7667867880008998,192.74349588300174,None,193.54287006400045,None,193.54287006400045,None,d,0.25549442599731265,193.54287006400045,None,193.82568016200094,None,,,,,,,,,,,,,sub-18,30/07/2001,1: Male,14/10/2023,002,1: right,2023_Oct_14_1735,[FINAL]_fmri_multiplication,2021.2.3,60.04622598751384
block5.xlsx,170.1,7.5,7.1,5 x 7,40,17,7 x 5 = 40,large-sized_low-interference,large-sized,low-interference,7,IncorrectRESP,d,0,0,0,0,0,12,12,12,,,,,,,,,,,,,,,199.8259404929995,None,200.32576659400002,None,202.3260738200006,None,203.07611481200001,None,203.32595275800122,None,203.32595275800122,None,a,0,0.6083654670001124,203.32595275800122,None,203.95879760800017,None,203.95879760800017,None,d,0.19952403100251104,203.95879760800017,None,204.17552860200158,None,,,,,,,,,,,,,sub-18,30/07/2001,1: Male,14/10/2023,002,1: right,2023_Oct_14_1735,[FINAL]_fmri_multiplication,2021.2.3,60.04622598751384
block5.xlsx,184.7,7.5,5.3,4 x 6,28,10,6 x 4 = 28,small-sized_high-interference,small-sized,high-interference,12,IncorrectRESP,d,0,0,0,0,0,13,13,13,,,,,,,,,,,,,,,211.2760318110013,None,211.77580234700145,None,213.7903343830003,None,214.5407871089992,None,214.79012373099977,None,214.79012373099977,None,a,0,0.5840780930011533,214.79012373099977,None,215.3908329500009,None,215.3908329500009,None,d,0.2874887280013354,215.3908329500009,None,215.70755560500038,None,,,,,,,,,,,,,sub-18,30/07/2001,1: Male,14/10/2023,002,1: right,2023_Oct_14_1735,[FINAL]_fmri_multiplication,2021.2.3,60.04622598751384
block5.xlsx,197.5,7.5,4.2,2 x 7,14,1,7 x 2 = 14,small-sized_low-interference,small-sized,low-interference,4,CorrectRESP,a,0,0,0,0,0,14,14,14,,,,,,,,,,,,,,,221.00877570800003,None,221.50983313699908,None,223.52463838499898,None,224.2596050780012,None,224.51013275800142,None,224.51013275800142,None,d,0,0.6161381359997904,224.51013275800142,None,225.1419560300019,None,225.1419560300019,None,d,0.43232604199874913,225.1419560300019,None,225.59265528800097,None,,,,,,,,,,,,,sub-18,30/07/2001,1: Male,14/10/2023,002,1: right,2023_Oct_14_1735,[FINAL]_fmri_multiplication,2021.2.3,60.04622598751384
block5.xlsx,209.2,7.5,7.2,9 x 4,36,20,4 x 9 = 36,large-sized_high-interference,large-sized,high-interference,9,CorrectRESP,a,0,0,0,0,0,15,15,15,,,,,,,,,,,,,,,229.79228338800021,None,230.29442226500032,None,232.30952542500017,None,233.05966168699888,None,233.30994049199944,None,233.30994049199944,None,a,1,0.7123319699967396,233.30994049199944,None,234.04594567700042,None,234.04594567700042,None,a,1.1044322960005957,234.04594567700042,None,235.1759177310014,None,,,,,,,,,,,,,sub-18,30/07/2001,1: Male,14/10/2023,002,1: right,2023_Oct_14_1735,[FINAL]_fmri_multiplication,2021.2.3,60.04622598751384
block5.xlsx,223.9,7.5,4.3,4 x 4,20,4,4 x 4 = 20,small-sized_low-interference,small-sized,low-interference,5,IncorrectRESP,d,0,0,0,0,0,16,16,16,,,,,,,,,,,,,,,242.37594510100098,None,242.87590714600083,None,244.87597530199855,None,245.62592011800007,None,245.8760198580021,None,245.8760198580021,None,a,0,0.7143973089987412,245.8760198580021,None,246.60876442199879,None,246.60876442199879,None,d,0.7336681950000639,246.60876442199879,None,247.35881646399866,None,,,,,,,,,,,,,sub-18,30/07/2001,1: Male,14/10/2023,002,1: right,2023_Oct_14_1735,[FINAL]_fmri_multiplication,2021.2.3,60.04622598751384
block5.xlsx,235.7,7.5,9.9,6 x 7,48,23,7 x 6 = 48,large-sized_high-interference,large-sized,high-interference,22,IncorrectRESP,d,0,0,0,0,0,17,17,17,,,,,,,,,,,,,,,251.65870264299883,None,252.15967652000109,None,254.1591454929985,None,254.90937807299997,None,255.15881530499973,None,255.15881530499973,None,a,0,0.5755402879985922,255.15881530499973,None,255.75885947500137,None,255.75885947500137,None,d,0.32749420199979795,255.75885947500137,None,256.1088455390018,None,,,,,,,,,,,,,sub-18,30/07/2001,1: Male,14/10/2023,002,1: right,2023_Oct_14_1735,[FINAL]_fmri_multiplication,2021.2.3,60.04622598751384
block5.xlsx,253.1,7.5,3.1,9 x 2,18,2,2 x 9 = 18,small-sized_low-interference,small-sized,low-interference,7,CorrectRESP,a,0,0,0,0,0,18,18,18,,,,,,,,,,,,,,,266.00884347100146,None,266.51054662599927,None,268.50874640799884,None,269.25933194699974,None,269.5091149020009,None,269.5091149020009,None,d,0,0.8652432740018412,269.5091149020009,None,270.3919316229985,None,270.3919316229985,None,d,0.4304685810020601,270.3919316229985,None,270.842112,None,,,,,,,,,,,,,sub-18,30/07/2001,1: Male,14/10/2023,002,1: right,2023_Oct_14_1735,[FINAL]_fmri_multiplication,2021.2.3,60.04622598751384
block5.xlsx,263.7,7.5,4.6,5 x 9,40,15,9 x 5 = 40,large-sized_low-interference,large-sized,low-interference,6,IncorrectRESP,d,0,0,0,0,0,19,19,19,,,,,,,,,,,,,,,273.94272719700166,None,274.44275072800156,None,276.4426050809998,None,277.19258648699906,None,277.44260198399934,None,277.44260198399934,None,a,0,0.6676838780003891,277.44260198399934,None,278.1413572269994,None,278.1413572269994,None,d,0.5688762620011403,278.1413572269994,None,278.7426549,None,,,,,,,,,,,,,sub-18,30/07/2001,1: Male,14/10/2023,002,1: right,2023_Oct_14_1735,[FINAL]_fmri_multiplication,2021.2.3,60.04622598751384
block5.xlsx,275.8,7.5,3.9,7 x 8,63,22,8 x 7 = 63,large-sized_high-interference,large-sized,high-interference,9,IncorrectRESP,d,0,0,0,0,0,20,20,20,,,,,,,,,,,,,,,283.3426194700005,None,283.8425949750017,None,285.8425099240012,None,286.5925898200003,None,286.8428931720009,None,286.8428931720009,None,a,0,0.8353673620003974,286.8428931720009,None,287.7094868839995,None,287.7094868839995,None,a,0.6248832509991189,287.7094868839995,None,288.35886874399876,None,,,,,,,,,,,,,sub-18,30/07/2001,1: Male,14/10/2023,002,1: right,2023_Oct_14_1735,[FINAL]_fmri_multiplication,2021.2.3,60.04622598751384
block5.xlsx,287.2,7.5,7.4,4 x 3,15,9,3 x 4 = 15,small-sized_high-interference,small-sized,high-interference,10,IncorrectRESP,d,0,0,0,0,0,21,21,21,,,,,,,,,,,,,,,292.2593280959991,None,292.7595997460012,None,294.7594479110012,None,295.50673289100087,None,295.7510438249992,None,295.7510438249992,None,a,0,0.6233258339998429,295.7510438249992,None,296.3915548629993,None,296.3915548629993,None,d,0.2546845159995428,296.3915548629993,None,296.6764528329986,None,,,,,,,,,,,,,sub-18,30/07/2001,1: Male,14/10/2023,002,1: right,2023_Oct_14_1735,[FINAL]_fmri_multiplication,2021.2.3,60.04622598751384
block5.xlsx,302.1,7.5,7.1,4 x 8,32,24,8 x 4 = 32,large-sized_high-interference,large-sized,high-interference,25,CorrectRESP,a,0,0,0,0,0,22,22,22,,,,,,,,,,,,,,,304.0763018510006,None,304.5759277290017,None,306.5761915229996,None,307.3260072209996,None,307.57542842600014,None,307.57542842600014,None,d,0,0.5428761959992698,307.57542842600014,None,308.14225872799943,None,308.14225872799943,None,d,0.18399465200127452,308.14225872799943,None,308.35896697499993,None,,,,,,,,,,,,,sub-18,30/07/2001,1: Male,14/10/2023,002,1: right,2023_Oct_14_1735,[FINAL]_fmri_multiplication,2021.2.3,60.04622598751384
block5.xlsx,316.7,7.5,10.8,6 x 6,36,13,6 x 6 = 36,large-sized_low-interference,large-sized,low-interference,4,CorrectRESP,a,0,0,0,0,0,23,23,23,,,,,,,,,,,,,,,315.4592425840019,None,315.9590065759985,None,317.9591017,None,318.7091031989985,None,318.95914798599915,None,318.95914798599915,None,d,0,0.5031144739987212,318.95914798599915,None,319.4925552370005,None,319.4925552370005,None,d,0.18570654300128808,319.4925552370005,None,319.7092708470009,None,,,,,,,,,,,,,sub-18,30/07/2001,1: Male,14/10/2023,002,1: right,2023_Oct_14_1735,[FINAL]_fmri_multiplication,2021.2.3,60.04622598751384
block5.xlsx,,,,,,,,,,,,,,0,0,0,0,,,,,0,0,0,0,,,,,,,,,,,,,,,,,,,,,,,,,,,,,,,,,,,,,,330.5127987980013,None,330.5127987980013,None,,,,,,,,,sub-18,30/07/2001,1: Male,14/10/2023,002,1: right,2023_Oct_14_1735,[FINAL]_fmri_multiplication,2021.2.3,60.04622598751384
block5.xlsx,,,,,,,,,,,,,,0,0,0,0,,,,,1,0,1,0,,,,,,,,,,,,,,,,,,,,,,,,,,,,,,,,,,,,,,331.5281587030004,None,331.5281587030004,None,,,,,,,,,sub-18,30/07/2001,1: Male,14/10/2023,002,1: right,2023_Oct_14_1735,[FINAL]_fmri_multiplication,2021.2.3,60.04622598751384
block5.xlsx,,,,,,,,,,,,,,0,0,0,0,,,,,2,0,2,0,,,,,,,,,,,,,,,,,,,,,,,,,,,,,,,,,,,,,,332.5279282299998,None,332.5279282299998,None,,,,,,,,,sub-18,30/07/2001,1: Male,14/10/2023,002,1: right,2023_Oct_14_1735,[FINAL]_fmri_multiplication,2021.2.3,60.04622598751384
block5.xlsx,,,,,,,,,,,,,,0,0,0,0,,,,,3,0,3,0,,,,,,,,,,,,,,,,,,,,,,,,,,,,,,,,,,,,,,333.5404554859997,None,333.5404554859997,None,,,,,,,,,sub-18,30/07/2001,1: Male,14/10/2023,002,1: right,2023_Oct_14_1735,[FINAL]_fmri_multiplication,2021.2.3,60.04622598751384
block5.xlsx,,,,,,,,,,,,,,0,0,0,0,,,,,4,0,4,0,,,,,,,,,,,,,,,,,,,,,,,,,,,,,,,,,,,,,,334.52793698299865,None,334.52793698299865,None,,,,,,,,,sub-18,30/07/2001,1: Male,14/10/2023,002,1: right,2023_Oct_14_1735,[FINAL]_fmri_multiplication,2021.2.3,60.04622598751384
block5.xlsx,,,,,,,,,,,,,,0,0,0,0,,,,,5,0,5,0,,,,,,,,,,,,,,,,,,,,,,,,,,,,,,,,,,,,,,335.5285952919985,None,335.5285952919985,None,,,,,,,,,sub-18,30/07/2001,1: Male,14/10/2023,002,1: right,2023_Oct_14_1735,[FINAL]_fmri_multiplication,2021.2.3,60.04622598751384
block5.xlsx,,,,,,,,,,,,,,0,0,0,0,,,,,6,0,6,0,,,,,,,,,,,,,,,,,,,,,,,,,,,,,,,,,,,,,,336.52757885400206,None,336.52757885400206,None,,,,,,,,,sub-18,30/07/2001,1: Male,14/10/2023,002,1: right,2023_Oct_14_1735,[FINAL]_fmri_multiplication,2021.2.3,60.04622598751384
block5.xlsx,,,,,,,,,,,,,,0,0,0,0,,,,,7,0,7,0,,,,,,,,,,,,,,,,,,,,,,,,,,,,,,,,,,,,,,337.52829456499967,None,337.52829456499967,None,,,,,,,,,sub-18,30/07/2001,1: Male,14/10/2023,002,1: right,2023_Oct_14_1735,[FINAL]_fmri_multiplication,2021.2.3,60.04622598751384
block5.xlsx,,,,,,,,,,,,,,0,0,0,0,,,,,8,0,8,0,,,,,,,,,,,,,,,,,,,,,,,,,,,,,,,,,,,,,,338.52652274199863,None,338.52652274199863,None,,,,,,,,,sub-18,30/07/2001,1: Male,14/10/2023,002,1: right,2023_Oct_14_1735,[FINAL]_fmri_multiplication,2021.2.3,60.04622598751384
block5.xlsx,,,,,,,,,,,,,,0,0,0,0,,,,,9,0,9,0,,,,,,,,,,,,,,,,,,,,,,,,,,,,,,,,,,,,,,339.5272600919998,None,339.5272600919998,None,,,,,,,,,sub-18,30/07/2001,1: Male,14/10/2023,002,1: right,2023_Oct_14_1735,[FINAL]_fmri_multiplication,2021.2.3,60.04622598751384
block5.xlsx,,,,,,,,,,,,,,0,0,0,0,,,,,10,0,10,0,,,,,,,,,,,,,,,,,,,,,,,,,,,,,,,,,,,,,,340.52584074100014,None,340.52584074100014,None,,,,,,,,,sub-18,30/07/2001,1: Male,14/10/2023,002,1: right,2023_Oct_14_1735,[FINAL]_fmri_multiplication,2021.2.3,60.04622598751384
block5.xlsx,,,,,,,,,,,,,,0,0,0,0,,,,,11,0,11,0,,,,,,,,,,,,,,,,,,,,,,,,,,,,,,,,,,,,,,341.52595478500007,None,341.52595478500007,None,,,,,,,,,sub-18,30/07/2001,1: Male,14/10/2023,002,1: right,2023_Oct_14_1735,[FINAL]_fmri_multiplication,2021.2.3,60.04622598751384
block5.xlsx,,,,,,,,,,,,,,0,0,0,0,,,,,12,0,12,0,,,,,,,,,,,,,,,,,,,,,,,,,,,,,,,,,,,,,,342.52690844899917,None,342.52690844899917,None,,,,,,,,,sub-18,30/07/2001,1: Male,14/10/2023,002,1: right,2023_Oct_14_1735,[FINAL]_fmri_multiplication,2021.2.3,60.04622598751384
block5.xlsx,,,,,,,,,,,,,,0,0,0,0,,,,,13,0,13,0,,,,,,,,,,,,,,,,,,,,,,,,,,,,,,,,,,,,,,343.5266904130003,None,343.5266904130003,None,,,,,,,,,sub-18,30/07/2001,1: Male,14/10/2023,002,1: right,2023_Oct_14_1735,[FINAL]_fmri_multiplication,2021.2.3,60.04622598751384
block5.xlsx,,,,,,,,,,,,,,0,0,0,0,,,,,14,0,14,0,,,,,,,,,,,,,,,,,,,,,,,,,,,,,,,,,,,,,,344.5267504,None,344.5267504,None,,,,,,,,,sub-18,30/07/2001,1: Male,14/10/2023,002,1: right,2023_Oct_14_1735,[FINAL]_fmri_multiplication,2021.2.3,60.04622598751384
block5.xlsx,,,,,,,,,,,,,,0,0,0,0,,,,,15,0,15,0,,,,,,,,,,,,,,,,,,,,,,,,,,,,,,,,,,,,,,345.5281148409995,None,345.5281148409995,None,,,,,,,,,sub-18,30/07/2001,1: Male,14/10/2023,002,1: right,2023_Oct_14_1735,[FINAL]_fmri_multiplication,2021.2.3,60.04622598751384
block5.xlsx,,,,,,,,,,,,,,0,0,0,0,,,,,16,0,16,0,,,,,,,,,,,,,,,,,,,,,,,,,,,,,,,,,,,,,,346.5279575,None,346.5279575,None,,,,,,,,,sub-18,30/07/2001,1: Male,14/10/2023,002,1: right,2023_Oct_14_1735,[FINAL]_fmri_multiplication,2021.2.3,60.04622598751384
block5.xlsx,,,,,,,,,,,,,,0,0,0,0,,,,,17,0,17,0,,,,,,,,,,,,,,,,,,,,,,,,,,,,,,,,,,,,,,347.52606720399854,None,347.52606720399854,None,,,,,,,,,sub-18,30/07/2001,1: Male,14/10/2023,002,1: right,2023_Oct_14_1735,[FINAL]_fmri_multiplication,2021.2.3,60.04622598751384
block5.xlsx,,,,,,,,,,,,,,0,0,0,0,,,,,18,0,18,0,,,,,,,,,,,,,,,,,,,,,,,,,,,,,,,,,,,,,,348.52577898600066,None,348.52577898600066,None,,,,,,,,,sub-18,30/07/2001,1: Male,14/10/2023,002,1: right,2023_Oct_14_1735,[FINAL]_fmri_multiplication,2021.2.3,60.04622598751384
block5.xlsx,,,,,,,,,,,,,,0,0,0,0,,,,,19,0,19,0,,,,,,,,,,,,,,,,,,,,,,,,,,,,,,,,,,,,,,349.5268285940001,None,349.5268285940001,None,,,,,,,,,sub-18,30/07/2001,1: Male,14/10/2023,002,1: right,2023_Oct_14_1735,[FINAL]_fmri_multiplication,2021.2.3,60.04622598751384
block5.xlsx,,,,,,,,,,,,,,0,0,0,0,,,,,20,0,20,0,,,,,,,,,,,,,,,,,,,,,,,,,,,,,,,,,,,,,,350.52732,None,350.52732,None,,,,,,,,,sub-18,30/07/2001,1: Male,14/10/2023,002,1: right,2023_Oct_14_1735,[FINAL]_fmri_multiplication,2021.2.3,60.04622598751384
block5.xlsx,,,,,,,,,,,,,,0,0,0,0,,,,,21,0,21,0,,,,,,,,,,,,,,,,,,,,,,,,,,,,,,,,,,,,,,351.5260178179997,None,351.5260178179997,None,,,,,,,,,sub-18,30/07/2001,1: Male,14/10/2023,002,1: right,2023_Oct_14_1735,[FINAL]_fmri_multiplication,2021.2.3,60.04622598751384
block5.xlsx,,,,,,,,,,,,,,0,0,0,0,,,,,22,0,22,0,,,,,,,,,,,,,,,,,,,,,,,,,,,,,,,,,,,,,,352.5260167500019,None,352.5260167500019,None,,,,,,,,,sub-18,30/07/2001,1: Male,14/10/2023,002,1: right,2023_Oct_14_1735,[FINAL]_fmri_multiplication,2021.2.3,60.04622598751384
block5.xlsx,,,,,,,,,,,,,,0,0,0,0,,,,,23,0,23,0,,,,,,,,,,,,,,,,,,,,,,,,,,,,,,,,,,,,,,353.5258903799986,None,353.5258903799986,None,,,,,,,,,sub-18,30/07/2001,1: Male,14/10/2023,002,1: right,2023_Oct_14_1735,[FINAL]_fmri_multiplication,2021.2.3,60.04622598751384
block5.xlsx,,,,,,,,,,,,,,0,0,0,0,,,,,24,0,24,0,,,,,,,,,,,,,,,,,,,,,,,,,,,,,,,,,,,,,,354.5260399379986,None,354.5260399379986,None,,,,,,,,,sub-18,30/07/2001,1: Male,14/10/2023,002,1: right,2023_Oct_14_1735,[FINAL]_fmri_multiplication,2021.2.3,60.04622598751384
block5.xlsx,,,,,,,,,,,,,,0,0,0,0,,,,,25,0,25,0,,,,,,,,,,,,,,,,,,,,,,,,,,,,,,,,,,,,,,355.5262343860013,None,355.5262343860013,None,,,,,,,,,sub-18,30/07/2001,1: Male,14/10/2023,002,1: right,2023_Oct_14_1735,[FINAL]_fmri_multiplication,2021.2.3,60.04622598751384
block5.xlsx,,,,,,,,,,,,,,0,0,0,0,,,,,26,0,26,0,,,,,,,,,,,,,,,,,,,,,,,,,,,,,,,,,,,,,,356.52611705600066,None,356.52611705600066,None,,,,,,,,,sub-18,30/07/2001,1: Male,14/10/2023,002,1: right,2023_Oct_14_1735,[FINAL]_fmri_multiplication,2021.2.3,60.04622598751384
block5.xlsx,,,,,,,,,,,,,,0,0,0,0,,,,,27,0,27,0,,,,,,,,,,,,,,,,,,,,,,,,,,,,,,,,,,,,,,357.5265168879996,None,357.5265168879996,None,,,,,,,,,sub-18,30/07/2001,1: Male,14/10/2023,002,1: right,2023_Oct_14_1735,[FINAL]_fmri_multiplication,2021.2.3,60.04622598751384
block5.xlsx,,,,,,,,,,,,,,0,0,0,0,,,,,28,0,28,0,,,,,,,,,,,,,,,,,,,,,,,,,,,,,,,,,,,,,,358.5264622879986,None,358.5264622879986,None,,,,,,,,,sub-18,30/07/2001,1: Male,14/10/2023,002,1: right,2023_Oct_14_1735,[FINAL]_fmri_multiplication,2021.2.3,60.04622598751384
block5.xlsx,,,,,,,,,,,,,,0,0,0,0,,,,,29,0,29,0,,,,,,,,,,,,,,,,,,,,,,,,,,,,,,,,,,,,,,359.5273087400019,None,359.5273087400019,None,,,,,,,,,sub-18,30/07/2001,1: Male,14/10/2023,002,1: right,2023_Oct_14_1735,[FINAL]_fmri_multiplication,2021.2.3,60.04622598751384
block5.xlsx,,,,,,,,,,,,,,0,0,0,0,,,,,,,,,,,,,,,,,,,,,,,,,,,,,,,,,,,,,,,,,,,,,,,,,,,,,,,,,,sub-18,30/07/2001,1: Male,14/10/2023,002,1: right,2023_Oct_14_1735,[FINAL]_fmri_multiplication,2021.2.3,60.04622598751384
block6.xlsx,10,7.5,4.1,6 x 5,36,14,5 x 6 = 36,large-sized_low-interference,large-sized,low-interference,6,IncorrectRESP,d,0,1,1,1,0,0,0,0,,,,,,,,,,,,,360.52695852300167,None,370.5495851420019,None,371.0404065099974,None,373.0263149240018,None,373.77634823199696,None,374.02680812400286,None,374.02680812400286,None,a,0,0.7795967390047736,374.02680812400286,None,374.82569206800326,None,374.82569206800326,None,d,0.5005684879943146,374.82569206800326,None,375.35924795199753,None,,,,,,,,,,,,,sub-18,30/07/2001,1: Male,14/10/2023,002,1: right,2023_Oct_14_1735,[FINAL]_fmri_multiplication,2021.2.3,60.04622598751384
block6.xlsx,21.6,7.5,7.2,2 x 6,10,6,6 x 2 = 10,small-sized_low-interference,small-sized,low-interference,3,IncorrectRESP,d,0,1,1,1,0,1,1,1,,,,,,,,,,,,,,,379.4593732789981,None,379.95900513099696,None,381.95921880800233,None,382.7094506609974,None,382.9591279810011,None,382.9591279810011,None,a,0,0.6791325439990032,382.9591279810011,None,383.6586481279992,None,383.6586481279992,None,d,0.6838305170022068,383.6586481279992,None,384.3591972929971,None,,,,,,,,,,,,,sub-18,30/07/2001,1: Male,14/10/2023,002,1: right,2023_Oct_14_1735,[FINAL]_fmri_multiplication,2021.2.3,60.04622598751384
block6.xlsx,36.3,7.5,13.8,6 x 7,42,23,7 x 6 = 42,large-sized_high-interference,large-sized,high-interference,22,CorrectRESP,a,0,1,1,1,0,2,2,2,,,,,,,,,,,,,,,391.55867220500295,None,392.0592398400004,None,394.0592444620015,None,394.8090683299997,None,395.05913852699814,None,395.05913852699814,None,d,0,0.8591626380002708,395.05913852699814,None,395.9422043140039,None,395.9422043140039,None,a,0.8321481669991044,395.9422043140039,None,396.7921855959976,None,,,,,,,,,,,,,sub-18,30/07/2001,1: Male,14/10/2023,002,1: right,2023_Oct_14_1735,[FINAL]_fmri_multiplication,2021.2.3,60.04622598751384
block6.xlsx,57.6,7.5,3.7,3 x 7,21,11,7 x 3 = 21,small-sized_high-interference,small-sized,high-interference,13,CorrectRESP,a,0,1,1,1,0,3,3,3,,,,,,,,,,,,,,,410.59275021300346,None,411.0925551310029,None,413.0934438380027,None,413.8426500750029,None,414.09160576700015,None,414.09160576700015,None,d,0,0.706762666,414.09160576700015,None,414.82613086799756,None,414.82613086799756,None,d,0.18819493299815804,414.82613086799756,None,415.04272253199815,None,,,,,,,,,,,,,sub-18,30/07/2001,1: Male,14/10/2023,002,1: right,2023_Oct_14_1735,[FINAL]_fmri_multiplication,2021.2.3,60.04622598751384
block6.xlsx,68.8,7.5,7.8,2 x 7,12,1,7 x 2 = 12,small-sized_low-interference,small-sized,low-interference,4,IncorrectRESP,d,0,1,1,1,0,4,4,4,,,,,,,,,,,,,,,418.7424681579978,None,419.2423010820021,None,421.24276697000096,None,421.9923374059981,None,422.24169340700246,None,422.24169340700246,None,a,0,0.6125942169965128,422.24169340700246,None,422.8753556519987,None,422.8753556519987,None,d,0.24295182999776443,422.8753556519987,None,423.1425758169971,None,,,,,,,,,,,,,sub-18,30/07/2001,1: Male,14/10/2023,002,1: right,2023_Oct_14_1735,[FINAL]_fmri_multiplication,2021.2.3,60.04622598751384
block6.xlsx,84.1,7.5,8.6,3 x 9,24,19,9 x 3 = 24,large-sized_high-interference,large-sized,high-interference,9,IncorrectRESP,d,0,1,1,1,0,5,5,5,,,,,,,,,,,,,,,430.94246410300184,None,431.44216722099736,None,433.4427406729992,None,434.1923034090032,None,434.44400400099767,None,434.44400400099767,None,a,0,0.5543674590007868,434.44400400099767,None,435.0261810960037,None,435.0261810960037,None,d,0.5401034120004624,435.0261810960037,None,435.59273620800013,None,,,,,,,,,,,,,sub-18,30/07/2001,1: Male,14/10/2023,002,1: right,2023_Oct_14_1735,[FINAL]_fmri_multiplication,2021.2.3,60.04622598751384
block6.xlsx,100.2,7.5,3.3,4 x 6,24,10,6 x 4 = 24,small-sized_high-interference,small-sized,high-interference,12,CorrectRESP,a,0,1,1,1,0,6,6,6,,,,,,,,,,,,,,,444.1929477720005,None,444.69325475200094,None,446.6927959959976,None,447.4427442979977,None,447.6924626430009,None,447.6924626430009,None,d,0,0.5858064829953946,447.6924626430009,None,448.3093185900034,None,448.3093185900034,None,d,0.1529533110006014,448.3093185900034,None,448.4927325589997,None,,,,,,,,,,,,,sub-18,30/07/2001,1: Male,14/10/2023,002,1: right,2023_Oct_14_1735,[FINAL]_fmri_multiplication,2021.2.3,60.04622598751384
block6.xlsx,111,7.5,6.3,9 x 2,16,2,2 x 9 = 16,small-sized_low-interference,small-sized,low-interference,7,IncorrectRESP,d,0,1,1,1,0,7,7,7,,,,,,,,,,,,,,,451.79246654200324,None,452.29140298100174,None,454.29259305099913,None,455.0420520989974,None,455.2926979840013,None,455.2926979840013,None,a,0,0.5936347280003247,455.2926979840013,None,455.90866193900365,None,455.90866193900365,None,d,0.34561180300079286,455.90866193900365,None,456.2754150410001,None,,,,,,,,,,,,,sub-18,30/07/2001,1: Male,14/10/2023,002,1: right,2023_Oct_14_1735,[FINAL]_fmri_multiplication,2021.2.3,60.04622598751384
block6.xlsx,124.8,7.5,3.1,6 x 6,30,13,6 x 6 = 30,large-sized_low-interference,large-sized,low-interference,4,IncorrectRESP,d,0,1,1,1,0,8,8,8,,,,,,,,,,,,,,,462.57525552699735,None,463.07571762599764,None,465.0758585179974,None,465.82594395800334,None,466.0762915600026,None,466.0762915600026,None,a,0,0.6100578900004621,466.0762915600026,None,466.7088564600017,None,466.7088564600017,None,d,0.19340730700059794,466.7088564600017,None,466.92556855800285,None,,,,,,,,,,,,,sub-18,30/07/2001,1: Male,14/10/2023,002,1: right,2023_Oct_14_1735,[FINAL]_fmri_multiplication,2021.2.3,60.04622598751384
block6.xlsx,135.4,7.5,2.7,5 x 4,16,8,4 x 5 = 16,small-sized_high-interference,small-sized,high-interference,8,IncorrectRESP,d,0,1,1,1,0,9,9,9,,,,,,,,,,,,,,,470.0257984,None,470.5263731069972,None,472.5265272869983,None,473.2762863889984,None,473.52617437499794,None,473.52617437499794,None,a,0,0.7041794109973125,473.52617437499794,None,474.25933825200264,None,474.25933825200264,None,d,0.2750112159992568,474.25933825200264,None,474.5594329850028,None,,,,,,,,,,,,,sub-18,30/07/2001,1: Male,14/10/2023,002,1: right,2023_Oct_14_1735,[FINAL]_fmri_multiplication,2021.2.3,60.04622598751384
block6.xlsx,145.6,7.5,5.1,5 x 5,25,3,5 x 5 = 25,small-sized_low-interference,small-sized,low-interference,3,CorrectRESP,a,0,1,1,1,0,10,10,10,,,,,,,,,,,,,,,477.2596190389995,None,477.75938588899953,None,479.75945758299713,None,480.5092859890028,None,480.75898405700354,None,480.75898405700354,None,d,0,0.6873782170005143,480.75898405700354,None,481.47623261100307,None,481.47623261100307,None,d,0.15414264999708394,481.47623261100307,None,481.6595477510018,None,,,,,,,,,,,,,sub-18,30/07/2001,1: Male,14/10/2023,002,1: right,2023_Oct_14_1735,[FINAL]_fmri_multiplication,2021.2.3,60.04622598751384
block6.xlsx,158.2,7.5,2.9,7 x 7,56,18,7 x 7 = 56,large-sized_low-interference,large-sized,low-interference,7,IncorrectRESP,d,0,1,1,1,0,11,11,11,,,,,,,,,,,,,,,486.75912491800045,None,487.25887922600305,None,489.2592730880024,None,490.0094516729987,None,490.2582698380029,None,490.2582698380029,None,a,0,0.7640415819987538,490.2582698380029,None,491.0420497530031,None,491.0420497530031,None,d,0.3403354900001432,491.0420497530031,None,491.4090012,None,,,,,,,,,,,,,sub-18,30/07/2001,1: Male,14/10/2023,002,1: right,2023_Oct_14_1735,[FINAL]_fmri_multiplication,2021.2.3,60.04622598751384
block6.xlsx,168.6,7.5,5.7,3 x 6,15,7,6 x 3 = 15,small-sized_high-interference,small-sized,high-interference,8,IncorrectRESP,d,0,1,1,1,0,12,12,12,,,,,,,,,,,,,,,494.3091780650029,None,494.8086239689983,None,496.8092379129994,None,497.5592147899988,None,497.8089641400038,None,497.8089641400038,None,a,0,0.6293025580016547,497.8089641400038,None,498.4587965849969,None,498.4587965849969,None,d,0.16357616900495486,498.4587965849969,None,498.64211245000115,None,,,,,,,,,,,,,sub-18,30/07/2001,1: Male,14/10/2023,002,1: right,2023_Oct_14_1735,[FINAL]_fmri_multiplication,2021.2.3,60.04622598751384
block6.xlsx,181.8,7.5,3,2 x 8,16,5,8 x 2 = 16,small-sized_low-interference,small-sized,low-interference,7,CorrectRESP,a,0,1,1,1,0,13,13,13,,,,,,,,,,,,,,,504.3426005,None,504.84294820200375,None,506.84306817400284,None,507.59312424600284,None,507.84385086600014,None,507.84385086600014,None,d,0,0.6824420669945539,507.84385086600014,None,508.5432476189999,None,508.5432476189999,None,d,0.36703667400433915,508.5432476189999,None,508.9425467889996,None,,,,,,,,,,,,,sub-18,30/07/2001,1: Male,14/10/2023,002,1: right,2023_Oct_14_1735,[FINAL]_fmri_multiplication,2021.2.3,60.04622598751384
block6.xlsx,192.3,7.5,5.9,5 x 9,45,15,9 x 5 = 45,large-sized_low-interference,large-sized,low-interference,6,CorrectRESP,a,0,1,1,1,0,14,14,14,,,,,,,,,,,,,,,511.9430337429985,None,512.4423781940022,None,514.4426404029982,None,515.1932116860007,None,515.442534,None,515.442534,None,d,0,0.5558574609967764,515.442534,None,516.0259361270037,None,516.0259361270037,None,d,0.1485103560044081,516.0259361270037,None,516.1922622980019,None,,,,,,,,,,,,,sub-18,30/07/2001,1: Male,14/10/2023,002,1: right,2023_Oct_14_1735,[FINAL]_fmri_multiplication,2021.2.3,60.04622598751384
block6.xlsx,205.7,7.5,2.1,4 x 3,12,9,3 x 4 = 12,small-sized_high-interference,small-sized,high-interference,10,CorrectRESP,a,0,1,1,1,0,15,15,15,,,,,,,,,,,,,,,522.0927275820031,None,522.5922608,None,524.5925928679972,None,525.3426124279977,None,525.5925342139999,None,525.5925342139999,None,d,0,0.6298483680002391,525.5925342139999,None,526.2420769700002,None,526.2420769700002,None,d,0.16429255299590295,526.2420769700002,None,526.4254075180033,None,,,,,,,,,,,,,sub-18,30/07/2001,1: Male,14/10/2023,002,1: right,2023_Oct_14_1735,[FINAL]_fmri_multiplication,2021.2.3,60.04622598751384
block6.xlsx,215.3,7.5,9.9,7 x 8,56,22,8 x 7 = 56,large-sized_high-interference,large-sized,high-interference,9,CorrectRESP,a,0,1,1,1,0,16,16,16,,,,,,,,,,,,,,,528.5258378019971,None,529.0257537339967,None,531.0258173439979,None,531.7758318610031,None,532.0259724520038,None,532.0259724520038,None,d,0,0.764401007,532.0259724520038,None,532.8087117610012,None,532.8087117610012,None,a,0.7576019230036763,532.8087117610012,None,533.5917864269977,None,,,,,,,,,,,,,sub-18,30/07/2001,1: Male,14/10/2023,002,1: right,2023_Oct_14_1735,[FINAL]_fmri_multiplication,2021.2.3,60.04622598751384
block6.xlsx,232.7,7.5,2.2,8 x 3,21,12,3 x 8 = 21,small-sized_high-interference,small-sized,high-interference,13,IncorrectRESP,d,0,1,1,1,0,17,17,17,,,,,,,,,,,,,,,543.4901386,None,543.9840245429987,None,545.9927421680004,None,546.7430360100007,None,546.9935677,None,546.9935677,None,a,0,0.7568001920008101,546.9935677,None,547.7755520050014,None,547.7755520050014,None,d,0.22284210300131235,547.7755520050014,None,548.0263845300033,None,,,,,,,,,,,,,sub-18,30/07/2001,1: Male,14/10/2023,002,1: right,2023_Oct_14_1735,[FINAL]_fmri_multiplication,2021.2.3,60.04622598751384
block6.xlsx,242.4,7.5,7.9,9 x 9,81,16,9 x 9 = 81,large-sized_low-interference,large-sized,low-interference,6,CorrectRESP,a,0,1,1,1,0,18,18,18,,,,,,,,,,,,,,,550.2260546420039,None,550.7255590059976,None,552.7259401430019,None,553.4757577020027,None,553.7256263470008,None,553.7256263470008,None,d,0,0.5366449969951645,553.7256263470008,None,554.2923874529988,None,554.2923874529988,None,d,0.14590659399982542,554.2923874529988,None,554.4589162619995,None,,,,,,,,,,,,,sub-18,30/07/2001,1: Male,14/10/2023,002,1: right,2023_Oct_14_1735,[FINAL]_fmri_multiplication,2021.2.3,60.04622598751384
block6.xlsx,257.8,7.5,8.3,9 x 4,32,20,4 x 9 = 32,large-sized_high-interference,large-sized,high-interference,9,IncorrectRESP,d,0,1,1,1,0,19,19,19,,,,,,,,,,,,,,,562.3590362,None,562.8591931,None,564.8591494,None,565.6091509939979,None,565.8593699410012,None,565.8593699410012,None,d,1,0.7868932999990648,565.8593699410012,None,566.6744632139998,None,566.6744632139998,None,d,0.6118092690012418,566.6744632139998,None,567.3091742259967,None,,,,,,,,,,,,,sub-18,30/07/2001,1: Male,14/10/2023,002,1: right,2023_Oct_14_1735,[FINAL]_fmri_multiplication,2021.2.3,60.04622598751384
block6.xlsx,273.6,7.5,12.1,5 x 7,35,17,7 x 5 = 35,large-sized_low-interference,large-sized,low-interference,7,CorrectRESP,a,0,1,1,1,0,20,20,20,,,,,,,,,,,,,,,575.6095082950014,None,576.1095925150039,None,578.1000756359972,None,578.8597060529974,None,579.1101405069967,None,579.1101405069967,None,d,0,0.5281471700000111,579.1101405069967,None,579.6592069,None,579.6592069,None,d,0.21905125999910524,579.6592069,None,579.9098359,None,,,,,,,,,,,,,sub-18,30/07/2001,1: Male,14/10/2023,002,1: right,2023_Oct_14_1735,[FINAL]_fmri_multiplication,2021.2.3,60.04622598751384
block6.xlsx,293.2,7.5,4.1,4 x 8,28,24,8 x 4 = 28,large-sized_high-interference,large-sized,high-interference,25,IncorrectRESP,d,0,1,1,1,0,21,21,21,,,,,,,,,,,,,,,592.0092873439971,None,592.5090757760008,None,594.5093067009984,None,595.2592787209978,None,595.5098689609986,None,595.5098689609986,None,a,0,0.5683880079959636,595.5098689609986,None,596.1091473860033,None,596.1091473860033,None,a,1.1291314150003018,596.1091473860033,None,597.2586760980012,None,,,,,,,,,,,,,sub-18,30/07/2001,1: Male,14/10/2023,002,1: right,2023_Oct_14_1735,[FINAL]_fmri_multiplication,2021.2.3,60.04622598751384
block6.xlsx,304.8,7.5,6.7,4 x 4,16,4,4 x 4 = 16,small-sized_low-interference,small-sized,low-interference,5,CorrectRESP,a,0,1,1,1,0,22,22,22,,,,,,,,,,,,,,,601.3586500010024,None,601.8589375229967,None,603.8591816849985,None,604.6087960850018,None,604.8593535270011,None,604.8593535270011,None,d,0,0.6269935870004701,604.8593535270011,None,605.5088432250013,None,605.5088432250013,None,d,0.16149258999939775,605.5088432250013,None,605.6921153,None,,,,,,,,,,,,,sub-18,30/07/2001,1: Male,14/10/2023,002,1: right,2023_Oct_14_1735,[FINAL]_fmri_multiplication,2021.2.3,60.04622598751384
block6.xlsx,319,7.5,8.5,8 x 5,40,21,5 x 8 = 40,large-sized_high-interference,large-sized,high-interference,9,CorrectRESP,a,0,1,1,1,0,23,23,23,,,,,,,,,,,,,,,612.3898870770026,None,612.8847075409976,None,614.8810770829987,None,615.6218943399981,None,615.8680013180019,None,615.8680013180019,None,d,0,0.5942248799983645,615.8680013180019,None,616.4927966010036,None,616.4927966010036,None,d,0.17752133999601938,616.4927966010036,None,616.6925388389973,None,,,,,,,,,,,,,sub-18,30/07/2001,1: Male,14/10/2023,002,1: right,2023_Oct_14_1735,[FINAL]_fmri_multiplication,2021.2.3,60.04622598751384
block6.xlsx,,,,,,,,,,,,,,0,1,1,1,,,,,0,0,0,0,,,,,,,,,,,,,,,,,,,,,,,,,,,,,,,,,,,,,,625.1960950309985,None,625.1960950309985,None,,,,,,,,,sub-18,30/07/2001,1: Male,14/10/2023,002,1: right,2023_Oct_14_1735,[FINAL]_fmri_multiplication,2021.2.3,60.04622598751384
block6.xlsx,,,,,,,,,,,,,,0,1,1,1,,,,,1,0,1,0,,,,,,,,,,,,,,,,,,,,,,,,,,,,,,,,,,,,,,626.2098188,None,626.2098188,None,,,,,,,,,sub-18,30/07/2001,1: Male,14/10/2023,002,1: right,2023_Oct_14_1735,[FINAL]_fmri_multiplication,2021.2.3,60.04622598751384
block6.xlsx,,,,,,,,,,,,,,0,1,1,1,,,,,2,0,2,0,,,,,,,,,,,,,,,,,,,,,,,,,,,,,,,,,,,,,,627.2095124250009,None,627.2095124250009,None,,,,,,,,,sub-18,30/07/2001,1: Male,14/10/2023,002,1: right,2023_Oct_14_1735,[FINAL]_fmri_multiplication,2021.2.3,60.04622598751384
block6.xlsx,,,,,,,,,,,,,,0,1,1,1,,,,,3,0,3,0,,,,,,,,,,,,,,,,,,,,,,,,,,,,,,,,,,,,,,628.2098792180004,None,628.2098792180004,None,,,,,,,,,sub-18,30/07/2001,1: Male,14/10/2023,002,1: right,2023_Oct_14_1735,[FINAL]_fmri_multiplication,2021.2.3,60.04622598751384
block6.xlsx,,,,,,,,,,,,,,0,1,1,1,,,,,4,0,4,0,,,,,,,,,,,,,,,,,,,,,,,,,,,,,,,,,,,,,,629.2099675379977,None,629.2099675379977,None,,,,,,,,,sub-18,30/07/2001,1: Male,14/10/2023,002,1: right,2023_Oct_14_1735,[FINAL]_fmri_multiplication,2021.2.3,60.04622598751384
block6.xlsx,,,,,,,,,,,,,,0,1,1,1,,,,,5,0,5,0,,,,,,,,,,,,,,,,,,,,,,,,,,,,,,,,,,,,,,630.2097167619977,None,630.2097167619977,None,,,,,,,,,sub-18,30/07/2001,1: Male,14/10/2023,002,1: right,2023_Oct_14_1735,[FINAL]_fmri_multiplication,2021.2.3,60.04622598751384
block6.xlsx,,,,,,,,,,,,,,0,1,1,1,,,,,6,0,6,0,,,,,,,,,,,,,,,,,,,,,,,,,,,,,,,,,,,,,,631.2090100399982,None,631.2090100399982,None,,,,,,,,,sub-18,30/07/2001,1: Male,14/10/2023,002,1: right,2023_Oct_14_1735,[FINAL]_fmri_multiplication,2021.2.3,60.04622598751384
block6.xlsx,,,,,,,,,,,,,,0,1,1,1,,,,,7,0,7,0,,,,,,,,,,,,,,,,,,,,,,,,,,,,,,,,,,,,,,632.2097115,None,632.2097115,None,,,,,,,,,sub-18,30/07/2001,1: Male,14/10/2023,002,1: right,2023_Oct_14_1735,[FINAL]_fmri_multiplication,2021.2.3,60.04622598751384
block6.xlsx,,,,,,,,,,,,,,0,1,1,1,,,,,8,0,8,0,,,,,,,,,,,,,,,,,,,,,,,,,,,,,,,,,,,,,,633.2102536880011,None,633.2102536880011,None,,,,,,,,,sub-18,30/07/2001,1: Male,14/10/2023,002,1: right,2023_Oct_14_1735,[FINAL]_fmri_multiplication,2021.2.3,60.04622598751384
block6.xlsx,,,,,,,,,,,,,,0,1,1,1,,,,,9,0,9,0,,,,,,,,,,,,,,,,,,,,,,,,,,,,,,,,,,,,,,634.2090549079985,None,634.2090549079985,None,,,,,,,,,sub-18,30/07/2001,1: Male,14/10/2023,002,1: right,2023_Oct_14_1735,[FINAL]_fmri_multiplication,2021.2.3,60.04622598751384
block6.xlsx,,,,,,,,,,,,,,0,1,1,1,,,,,10,0,10,0,,,,,,,,,,,,,,,,,,,,,,,,,,,,,,,,,,,,,,635.2090470419971,None,635.2090470419971,None,,,,,,,,,sub-18,30/07/2001,1: Male,14/10/2023,002,1: right,2023_Oct_14_1735,[FINAL]_fmri_multiplication,2021.2.3,60.04622598751384
block6.xlsx,,,,,,,,,,,,,,0,1,1,1,,,,,11,0,11,0,,,,,,,,,,,,,,,,,,,,,,,,,,,,,,,,,,,,,,636.2098213539975,None,636.2098213539975,None,,,,,,,,,sub-18,30/07/2001,1: Male,14/10/2023,002,1: right,2023_Oct_14_1735,[FINAL]_fmri_multiplication,2021.2.3,60.04622598751384
block6.xlsx,,,,,,,,,,,,,,0,1,1,1,,,,,12,0,12,0,,,,,,,,,,,,,,,,,,,,,,,,,,,,,,,,,,,,,,637.2086097539977,None,637.2086097539977,None,,,,,,,,,sub-18,30/07/2001,1: Male,14/10/2023,002,1: right,2023_Oct_14_1735,[FINAL]_fmri_multiplication,2021.2.3,60.04622598751384
block6.xlsx,,,,,,,,,,,,,,0,1,1,1,,,,,13,0,13,0,,,,,,,,,,,,,,,,,,,,,,,,,,,,,,,,,,,,,,638.2089877,None,638.2089877,None,,,,,,,,,sub-18,30/07/2001,1: Male,14/10/2023,002,1: right,2023_Oct_14_1735,[FINAL]_fmri_multiplication,2021.2.3,60.04622598751384
block6.xlsx,,,,,,,,,,,,,,0,1,1,1,,,,,14,0,14,0,,,,,,,,,,,,,,,,,,,,,,,,,,,,,,,,,,,,,,639.2092888220031,None,639.2092888220031,None,,,,,,,,,sub-18,30/07/2001,1: Male,14/10/2023,002,1: right,2023_Oct_14_1735,[FINAL]_fmri_multiplication,2021.2.3,60.04622598751384
block6.xlsx,,,,,,,,,,,,,,0,1,1,1,,,,,15,0,15,0,,,,,,,,,,,,,,,,,,,,,,,,,,,,,,,,,,,,,,640.2112020189998,None,640.2112020189998,None,,,,,,,,,sub-18,30/07/2001,1: Male,14/10/2023,002,1: right,2023_Oct_14_1735,[FINAL]_fmri_multiplication,2021.2.3,60.04622598751384
block6.xlsx,,,,,,,,,,,,,,0,1,1,1,,,,,16,0,16,0,,,,,,,,,,,,,,,,,,,,,,,,,,,,,,,,,,,,,,641.2117562590029,None,641.2117562590029,None,,,,,,,,,sub-18,30/07/2001,1: Male,14/10/2023,002,1: right,2023_Oct_14_1735,[FINAL]_fmri_multiplication,2021.2.3,60.04622598751384
block6.xlsx,,,,,,,,,,,,,,0,1,1,1,,,,,17,0,17,0,,,,,,,,,,,,,,,,,,,,,,,,,,,,,,,,,,,,,,642.210702,None,642.210702,None,,,,,,,,,sub-18,30/07/2001,1: Male,14/10/2023,002,1: right,2023_Oct_14_1735,[FINAL]_fmri_multiplication,2021.2.3,60.04622598751384
block6.xlsx,,,,,,,,,,,,,,0,1,1,1,,,,,18,0,18,0,,,,,,,,,,,,,,,,,,,,,,,,,,,,,,,,,,,,,,643.2107936369976,None,643.2107936369976,None,,,,,,,,,sub-18,30/07/2001,1: Male,14/10/2023,002,1: right,2023_Oct_14_1735,[FINAL]_fmri_multiplication,2021.2.3,60.04622598751384
block6.xlsx,,,,,,,,,,,,,,0,1,1,1,,,,,19,0,19,0,,,,,,,,,,,,,,,,,,,,,,,,,,,,,,,,,,,,,,644.2097519409981,None,644.2097519409981,None,,,,,,,,,sub-18,30/07/2001,1: Male,14/10/2023,002,1: right,2023_Oct_14_1735,[FINAL]_fmri_multiplication,2021.2.3,60.04622598751384
block6.xlsx,,,,,,,,,,,,,,0,1,1,1,,,,,20,0,20,0,,,,,,,,,,,,,,,,,,,,,,,,,,,,,,,,,,,,,,645.2114341820015,None,645.2114341820015,None,,,,,,,,,sub-18,30/07/2001,1: Male,14/10/2023,002,1: right,2023_Oct_14_1735,[FINAL]_fmri_multiplication,2021.2.3,60.04622598751384
block6.xlsx,,,,,,,,,,,,,,0,1,1,1,,,,,21,0,21,0,,,,,,,,,,,,,,,,,,,,,,,,,,,,,,,,,,,,,,646.2105762210012,None,646.2105762210012,None,,,,,,,,,sub-18,30/07/2001,1: Male,14/10/2023,002,1: right,2023_Oct_14_1735,[FINAL]_fmri_multiplication,2021.2.3,60.04622598751384
block6.xlsx,,,,,,,,,,,,,,0,1,1,1,,,,,22,0,22,0,,,,,,,,,,,,,,,,,,,,,,,,,,,,,,,,,,,,,,647.2003086,None,647.2003086,None,,,,,,,,,sub-18,30/07/2001,1: Male,14/10/2023,002,1: right,2023_Oct_14_1735,[FINAL]_fmri_multiplication,2021.2.3,60.04622598751384
block6.xlsx,,,,,,,,,,,,,,0,1,1,1,,,,,23,0,23,0,,,,,,,,,,,,,,,,,,,,,,,,,,,,,,,,,,,,,,648.196908,None,648.196908,None,,,,,,,,,sub-18,30/07/2001,1: Male,14/10/2023,002,1: right,2023_Oct_14_1735,[FINAL]_fmri_multiplication,2021.2.3,60.04622598751384
block6.xlsx,,,,,,,,,,,,,,0,1,1,1,,,,,24,0,24,0,,,,,,,,,,,,,,,,,,,,,,,,,,,,,,,,,,,,,,649.2094908260005,None,649.2094908260005,None,,,,,,,,,sub-18,30/07/2001,1: Male,14/10/2023,002,1: right,2023_Oct_14_1735,[FINAL]_fmri_multiplication,2021.2.3,60.04622598751384
block6.xlsx,,,,,,,,,,,,,,0,1,1,1,,,,,25,0,25,0,,,,,,,,,,,,,,,,,,,,,,,,,,,,,,,,,,,,,,650.2095074860008,None,650.2095074860008,None,,,,,,,,,sub-18,30/07/2001,1: Male,14/10/2023,002,1: right,2023_Oct_14_1735,[FINAL]_fmri_multiplication,2021.2.3,60.04622598751384
block6.xlsx,,,,,,,,,,,,,,0,1,1,1,,,,,26,0,26,0,,,,,,,,,,,,,,,,,,,,,,,,,,,,,,,,,,,,,,651.2098896529969,None,651.2098896529969,None,,,,,,,,,sub-18,30/07/2001,1: Male,14/10/2023,002,1: right,2023_Oct_14_1735,[FINAL]_fmri_multiplication,2021.2.3,60.04622598751384
block6.xlsx,,,,,,,,,,,,,,0,1,1,1,,,,,27,0,27,0,,,,,,,,,,,,,,,,,,,,,,,,,,,,,,,,,,,,,,652.2100291,None,652.2100291,None,,,,,,,,,sub-18,30/07/2001,1: Male,14/10/2023,002,1: right,2023_Oct_14_1735,[FINAL]_fmri_multiplication,2021.2.3,60.04622598751384
block6.xlsx,,,,,,,,,,,,,,0,1,1,1,,,,,28,0,28,0,,,,,,,,,,,,,,,,,,,,,,,,,,,,,,,,,,,,,,653.2089496,None,653.2089496,None,,,,,,,,,sub-18,30/07/2001,1: Male,14/10/2023,002,1: right,2023_Oct_14_1735,[FINAL]_fmri_multiplication,2021.2.3,60.04622598751384
block6.xlsx,,,,,,,,,,,,,,0,1,1,1,,,,,29,0,29,0,,,,,,,,,,,,,,,,,,,,,,,,,,,,,,,,,,,,,,654.2096890700013,None,654.2096890700013,None,,,,,,,,,sub-18,30/07/2001,1: Male,14/10/2023,002,1: right,2023_Oct_14_1735,[FINAL]_fmri_multiplication,2021.2.3,60.04622598751384
block6.xlsx,,,,,,,,,,,,,,0,1,1,1,,,,,,,,,,,,,,,,,,,,,,,,,,,,,,,,,,,,,,,,,,,,,,,,,,,,,,,,,,sub-18,30/07/2001,1: Male,14/10/2023,002,1: right,2023_Oct_14_1735,[FINAL]_fmri_multiplication,2021.2.3,60.04622598751384
block7.xlsx,10,7.5,4,2 x 7,14,1,7 x 2 = 14,small-sized_low-interference,small-sized,low-interference,4,CorrectRESP,a,0,2,2,2,0,0,0,0,,,,,,,,,,,,,655.2097997580022,None,665.2318717449998,None,665.7090851170033,None,667.7092473339981,None,668.4594662609998,None,668.7092435740014,None,668.7092435740014,None,d,0,0.6571382399997674,668.7092435740014,None,669.3918636519993,None,669.3918636519993,None,d,0.33441442500043195,669.3918636519993,None,669.7592093460007,None,,,,,,,,,,,,,sub-18,30/07/2001,1: Male,14/10/2023,002,1: right,2023_Oct_14_1735,[FINAL]_fmri_multiplication,2021.2.3,60.04622598751384
block7.xlsx,21.5,7.5,14.2,3 x 6,15,7,6 x 3 = 15,small-sized_high-interference,small-sized,high-interference,8,IncorrectRESP,d,0,2,2,2,0,1,1,1,,,,,,,,,,,,,,,673.7586349439989,None,674.2589475579989,None,676.2592465439993,None,677.0085851939984,None,677.2594135139989,None,677.2594135139989,None,a,0,0.5389706720015965,677.2594135139989,None,677.8255292400027,None,677.8255292400027,None,d,0.2687545679946197,677.8255292400027,None,678.1258803780038,None,,,,,,,,,,,,,sub-18,30/07/2001,1: Male,14/10/2023,002,1: right,2023_Oct_14_1735,[FINAL]_fmri_multiplication,2021.2.3,60.04622598751384
block7.xlsx,43.2,7.5,5.1,2 x 7,12,1,7 x 2 = 12,small-sized_low-interference,small-sized,low-interference,4,IncorrectRESP,d,0,2,2,2,0,2,2,2,,,,,,,,,,,,,,,692.3260826709993,None,692.8247732,None,694.8260145670029,None,695.5759261940002,None,695.8256645320034,None,695.8256645320034,None,a,0,0.5966563719994156,695.8256645320034,None,696.4420208319971,None,696.4420208319971,None,d,0.18828694100375287,696.4420208319971,None,696.6592950939994,None,,,,,,,,,,,,,sub-18,30/07/2001,1: Male,14/10/2023,002,1: right,2023_Oct_14_1735,[FINAL]_fmri_multiplication,2021.2.3,60.04622598751384
block7.xlsx,55.8,7.5,3.4,5 x 9,40,15,9 x 5 = 40,large-sized_low-interference,large-sized,low-interference,6,IncorrectRESP,d,0,2,2,2,0,3,3,3,,,,,,,,,,,,,,,701.759168,None,702.2592382710027,None,704.2593205109988,None,705.0086580910029,None,705.2592154979975,None,705.2592154979975,None,a,0,0.6350639749944094,705.2592154979975,None,705.9259423549993,None,705.9259423549993,None,d,0.16037804799998412,705.9259423549993,None,706.1088098,None,,,,,,,,,,,,,sub-18,30/07/2001,1: Male,14/10/2023,002,1: right,2023_Oct_14_1735,[FINAL]_fmri_multiplication,2021.2.3,60.04622598751384
block7.xlsx,66.7,7.5,2.9,5 x 5,30,3,5 x 5 = 30,small-sized_low-interference,small-sized,low-interference,3,IncorrectRESP,d,0,2,2,2,0,4,4,4,,,,,,,,,,,,,,,709.5091767509984,None,710.0084588889986,None,712.0089696800023,None,712.7590989850032,None,713.0093874569975,None,713.0093874569975,None,a,0,0.5330078270053491,713.0093874569975,None,713.5592789900002,None,713.5592789900002,None,d,0.1270724159985548,713.5592789900002,None,713.7089469620005,None,,,,,,,,,,,,,sub-18,30/07/2001,1: Male,14/10/2023,002,1: right,2023_Oct_14_1735,[FINAL]_fmri_multiplication,2021.2.3,60.04622598751384
block7.xlsx,77.1,7.5,13.9,5 x 7,40,17,7 x 5 = 40,large-sized_low-interference,large-sized,low-interference,7,IncorrectRESP,d,0,2,2,2,0,5,5,5,,,,,,,,,,,,,,,716.6094415040025,None,717.1099770140027,None,719.1098249640017,None,719.8597318799984,None,720.1099619220004,None,720.1099619220004,None,a,0,1.5044096169949626,720.1099619220004,None,721.6426187360012,None,721.6426187360012,None,a,0.6756908149982337,721.6426187360012,None,722.3421259089992,None,,,,,,,,,,,,,sub-18,30/07/2001,1: Male,14/10/2023,002,1: right,2023_Oct_14_1735,[FINAL]_fmri_multiplication,2021.2.3,60.04622598751384
block7.xlsx,98.5,7.5,2.6,2 x 8,16,5,8 x 2 = 16,small-sized_low-interference,small-sized,low-interference,7,CorrectRESP,a,0,2,2,2,0,6,6,6,,,,,,,,,,,,,,,736.2425739950013,None,736.7426895380013,None,738.7425471999995,None,739.4925778619981,None,739.7426233999977,None,739.7426233999977,None,d,0,0.823737347,739.7426233999977,None,740.5921085609989,None,740.5921085609989,None,d,0.3582039300017641,740.5921085609989,None,740.9754875519975,None,,,,,,,,,,,,,sub-18,30/07/2001,1: Male,14/10/2023,002,1: right,2023_Oct_14_1735,[FINAL]_fmri_multiplication,2021.2.3,60.04622598751384
block7.xlsx,108.6,7.5,11.6,3 x 6,18,7,6 x 3 = 18,small-sized_high-interference,small-sized,high-interference,8,CorrectRESP,a,0,2,2,2,0,7,7,7,,,,,,,,,,,,,,,743.5758979700004,None,744.0760573670013,None,746.0759176140018,None,746.8259280340026,None,747.0755233389973,None,747.0755233389973,None,d,0,0.5068510769997374,747.0755233389973,None,747.6085876,None,747.6085876,None,d,0.15781342799891718,747.6085876,None,747.7919536790032,None,,,,,,,,,,,,,sub-18,30/07/2001,1: Male,14/10/2023,002,1: right,2023_Oct_14_1735,[FINAL]_fmri_multiplication,2021.2.3,60.04622598751384
block7.xlsx,127.7,7.5,5,5 x 5,25,3,5 x 5 = 25,small-sized_low-interference,small-sized,low-interference,3,CorrectRESP,a,0,2,2,2,0,8,8,8,,,,,,,,,,,,,,,759.3929413080004,None,759.8925905739998,None,761.8927452250027,None,762.6427137640021,None,762.8931317729985,None,762.8931317729985,None,d,0,0.6331366140002501,762.8931317729985,None,763.5593012330028,None,763.5593012330028,None,d,0.150967039,763.5593012330028,None,763.7426263130001,None,,,,,,,,,,,,,sub-18,30/07/2001,1: Male,14/10/2023,002,1: right,2023_Oct_14_1735,[FINAL]_fmri_multiplication,2021.2.3,60.04622598751384
block7.xlsx,140.2,7.5,2.8,6 x 6,36,13,6 x 6 = 36,large-sized_low-interference,large-sized,low-interference,4,CorrectRESP,a,0,2,2,2,0,9,9,9,,,,,,,,,,,,,,,768.7592120090012,None,769.2593867270007,None,771.2593180570002,None,772.0092683209987,None,772.2593232100007,None,772.2593232100007,None,d,0,0.47504598,772.2593232100007,None,772.7587222749971,None,772.7587222749971,None,d,0.15151055000023916,772.7587222749971,None,772.9425464109991,None,,,,,,,,,,,,,sub-18,30/07/2001,1: Male,14/10/2023,002,1: right,2023_Oct_14_1735,[FINAL]_fmri_multiplication,2021.2.3,60.04622598751384
block7.xlsx,150.5,7.5,2,3 x 7,21,11,7 x 3 = 21,small-sized_high-interference,small-sized,high-interference,13,CorrectRESP,a,0,2,2,2,0,10,10,10,,,,,,,,,,,,,,,775.7426236840001,None,776.2425118990031,None,778.2421224039972,None,778.9924421860014,None,779.2425575839989,None,779.2425575839989,None,d,0,0.4998576200014213,779.2425575839989,None,779.7591322449989,None,779.7591322449989,None,d,0.15917597600491717,779.7591322449989,None,779.9425326780001,None,,,,,,,,,,,,,sub-18,30/07/2001,1: Male,14/10/2023,002,1: right,2023_Oct_14_1735,[FINAL]_fmri_multiplication,2021.2.3,60.04622598751384
block7.xlsx,160,7.5,2.7,6 x 7,48,23,7 x 6 = 48,large-sized_high-interference,large-sized,high-interference,22,IncorrectRESP,d,0,2,2,2,0,11,11,11,,,,,,,,,,,,,,,781.9425660640009,None,782.4426169,None,784.4423085039998,None,785.1923947959986,None,785.4430194959969,None,785.4430194959969,None,a,0,0.6832618599946727,785.4430194959969,None,786.1592911,None,786.1592911,None,d,0.3429958670021733,786.1592911,None,786.5257690530016,None,,,,,,,,,,,,,sub-18,30/07/2001,1: Male,14/10/2023,002,1: right,2023_Oct_14_1735,[FINAL]_fmri_multiplication,2021.2.3,60.04622598751384
block7.xlsx,170.2,7.5,7,5 x 7,35,17,7 x 5 = 35,large-sized_low-interference,large-sized,low-interference,7,CorrectRESP,a,0,2,2,2,0,12,12,12,,,,,,,,,,,,,,,789.2233889430026,None,789.7178963139995,None,791.7263962649995,None,792.4762967000024,None,792.7404578949972,None,792.7404578949972,None,d,0,0.8019094740011496,792.7404578949972,None,793.5592722530018,None,793.5592722530018,None,d,0.47110921899729874,793.5592722530018,None,794.0592115349973,None,,,,,,,,,,,,,sub-18,30/07/2001,1: Male,14/10/2023,002,1: right,2023_Oct_14_1735,[FINAL]_fmri_multiplication,2021.2.3,60.04622598751384
block7.xlsx,184.7,7.5,3,3 x 9,27,19,9 x 3 = 27,large-sized_high-interference,large-sized,high-interference,9,CorrectRESP,a,0,2,2,2,0,13,13,13,,,,,,,,,,,,,,,801.0586007290003,None,801.5580928279996,None,803.5591779420029,None,804.3092451360026,None,804.5591668779998,None,804.5591668779998,None,d,0,0.5031016549983178,804.5591668779998,None,805.0920077009978,None,805.0920077009978,None,d,0.1542684809974162,805.0920077009978,None,805.2759391940017,None,,,,,,,,,,,,,sub-18,30/07/2001,1: Male,14/10/2023,002,1: right,2023_Oct_14_1735,[FINAL]_fmri_multiplication,2021.2.3,60.04622598751384
block7.xlsx,195.2,7.5,7.1,4 x 3,15,9,3 x 4 = 15,small-sized_high-interference,small-sized,high-interference,10,IncorrectRESP,d,0,2,2,2,0,14,14,14,,,,,,,,,,,,,,,808.2760073979989,None,808.7757238809972,None,810.7754435080024,None,811.5253628280007,None,811.7761276619967,None,811.7761276619967,None,a,0,0.8143058510031551,811.7761276619967,None,812.6088905280012,None,812.6088905280012,None,d,0.5974935810008901,812.6088905280012,None,813.2254733810005,None,,,,,,,,,,,,,sub-18,30/07/2001,1: Male,14/10/2023,002,1: right,2023_Oct_14_1735,[FINAL]_fmri_multiplication,2021.2.3,60.04622598751384
block7.xlsx,209.8,7.5,3.9,2 x 8,18,5,8 x 2 = 18,small-sized_low-interference,small-sized,low-interference,7,IncorrectRESP,d,0,2,2,2,0,15,15,15,,,,,,,,,,,,,,,820.3259545619985,None,820.8257543269974,None,822.8173766170039,None,823.5640268,None,823.8116756370036,None,823.8116756370036,None,a,0,0.5307852260011714,823.8116756370036,None,824.3596296919968,None,824.3596296919968,None,d,0.5026303380000172,824.3596296919968,None,824.8930752,None,,,,,,,,,,,,,sub-18,30/07/2001,1: Male,14/10/2023,002,1: right,2023_Oct_14_1735,[FINAL]_fmri_multiplication,2021.2.3,60.04622598751384
block7.xlsx,221.2,7.5,13.2,8 x 5,40,21,5 x 8 = 40,large-sized_high-interference,large-sized,high-interference,9,CorrectRESP,a,0,2,2,2,0,16,16,16,,,,,,,,,,,,,,,828.7925214120005,None,829.2934176259987,None,831.2928231439982,None,832.0429305710022,None,832.2921516430033,None,832.2921516430033,None,d,0,0.7461146240020753,832.2921516430033,None,833.0584853229993,None,833.0584853229993,None,d,0.3158516409966978,833.0584853229993,None,833.3921215629998,None,,,,,,,,,,,,,sub-18,30/07/2001,1: Male,14/10/2023,002,1: right,2023_Oct_14_1735,[FINAL]_fmri_multiplication,2021.2.3,60.04622598751384
block7.xlsx,241.9,7.5,8.7,3 x 7,24,11,7 x 3 = 24,small-sized_high-interference,small-sized,high-interference,13,IncorrectRESP,d,0,2,2,2,0,17,17,17,,,,,,,,,,,,,,,846.5921078580031,None,847.0921139599996,None,849.0921283419993,None,849.8421465519968,None,850.0921692320007,None,850.0921692320007,None,a,0,0.6662154450023081,850.0921692320007,None,850.7756530970037,None,850.7756530970037,None,d,0.2706010059991968,850.7756530970037,None,851.0758805969999,None,,,,,,,,,,,,,sub-18,30/07/2001,1: Male,14/10/2023,002,1: right,2023_Oct_14_1735,[FINAL]_fmri_multiplication,2021.2.3,60.04622598751384
block7.xlsx,258.1,7.5,8.1,6 x 6,30,13,6 x 6 = 30,large-sized_low-interference,large-sized,low-interference,4,IncorrectRESP,d,0,2,2,2,0,18,18,18,,,,,,,,,,,,,,,859.7740136390021,None,860.2895416810024,None,862.2930869,None,863.0431407280012,None,863.2933271710026,None,863.2933271710026,None,a,0,0.6570416670001578,863.2933271710026,None,863.9756364340028,None,863.9756364340028,None,d,0.35872388,863.9756364340028,None,864.3593474219997,None,,,,,,,,,,,,,sub-18,30/07/2001,1: Male,14/10/2023,002,1: right,2023_Oct_14_1735,[FINAL]_fmri_multiplication,2021.2.3,60.04622598751384
block7.xlsx,273.7,7.5,8.2,8 x 5,45,21,5 x 8 = 45,large-sized_high-interference,large-sized,high-interference,9,IncorrectRESP,d,0,2,2,2,0,19,19,19,,,,,,,,,,,,,,,872.4593581350018,None,872.9589378679993,None,874.9592452769975,None,875.7093526549979,None,875.9593817320019,None,875.9593817320019,None,a,0,0.7188764960010303,875.9593817320019,None,876.7078590519995,None,876.7078590519995,None,d,0.2984431510049035,876.7078590519995,None,877.0259826220026,None,,,,,,,,,,,,,sub-18,30/07/2001,1: Male,14/10/2023,002,1: right,2023_Oct_14_1735,[FINAL]_fmri_multiplication,2021.2.3,60.04622598751384
block7.xlsx,289.4,7.5,5.5,4 x 3,12,9,3 x 4 = 12,small-sized_high-interference,small-sized,high-interference,10,CorrectRESP,a,0,2,2,2,0,20,20,20,,,,,,,,,,,,,,,885.2252551800011,None,885.7255658160029,None,887.7259234409976,None,888.4759959160037,None,888.7261820140011,None,888.7261820140011,None,d,0,0.6721843880004599,888.7261820140011,None,889.4259414640001,None,889.4259414640001,None,d,0.48434135000570677,889.4259414640001,None,889.9427138380015,None,,,,,,,,,,,,,sub-18,30/07/2001,1: Male,14/10/2023,002,1: right,2023_Oct_14_1735,[FINAL]_fmri_multiplication,2021.2.3,60.04622598751384
block7.xlsx,302.4,7.5,4.8,3 x 9,24,19,9 x 3 = 24,large-sized_high-interference,large-sized,high-interference,9,IncorrectRESP,d,0,2,2,2,0,21,21,21,,,,,,,,,,,,,,,895.4429612779968,None,895.9428808,None,897.9425804699968,None,898.6929802550039,None,898.9428759900002,None,898.9428759900002,None,a,0,1.1994742050010245,898.9428759900002,None,900.1594241590028,None,900.1594241590028,None,a,0.8469654190048459,900.1594241590028,None,901.0256821690018,None,,,,,,,,,,,,,sub-18,30/07/2001,1: Male,14/10/2023,002,1: right,2023_Oct_14_1735,[FINAL]_fmri_multiplication,2021.2.3,60.04622598751384
block7.xlsx,314.7,7.5,2.5,5 x 9,45,15,9 x 5 = 45,large-sized_low-interference,large-sized,low-interference,6,CorrectRESP,a,0,2,2,2,0,22,22,22,,,,,,,,,,,,,,,905.8255137819979,None,906.3252003,None,908.3259439,None,909.0759598890036,None,909.3258268879981,None,909.3258268879981,None,d,0,0.5524659590009833,909.3258268879981,None,909.9088492390038,None,909.9088492390038,None,d,0.15343903999746544,909.9088492390038,None,910.0926714540001,None,,,,,,,,,,,,,sub-18,30/07/2001,1: Male,14/10/2023,002,1: right,2023_Oct_14_1735,[FINAL]_fmri_multiplication,2021.2.3,60.04622598751384
block7.xlsx,324.7,7.5,2.8,6 x 7,42,23,7 x 6 = 42,large-sized_high-interference,large-sized,high-interference,22,CorrectRESP,a,0,2,2,2,0,23,23,23,,,,,,,,,,,,,,,912.5924376720031,None,913.0920555439989,None,915.0919842160038,None,915.8425610939994,None,916.0921612979982,None,916.0921612979982,None,d,0,1.5700997070016456,916.0921612979982,None,917.6913538679983,None,917.6913538679983,None,a,0.22690941499604378,917.6913538679983,None,917.9425241,None,,,,,,,,,,,,,sub-18,30/07/2001,1: Male,14/10/2023,002,1: right,2023_Oct_14_1735,[FINAL]_fmri_multiplication,2021.2.3,60.04622598751384
block7.xlsx,,,,,,,,,,,,,,0,2,2,2,,,,,0,0,0,0,,,,,,,,,,,,,,,,,,,,,,,,,,,,,,,,,,,,,,920.7430929349975,None,920.7430929349975,None,,,,,,,,,sub-18,30/07/2001,1: Male,14/10/2023,002,1: right,2023_Oct_14_1735,[FINAL]_fmri_multiplication,2021.2.3,60.04622598751384
block7.xlsx,,,,,,,,,,,,,,0,2,2,2,,,,,1,0,1,0,,,,,,,,,,,,,,,,,,,,,,,,,,,,,,,,,,,,,,921.7434658329985,921.7434658329985,921.7434658329985,921.7434658329985,,,,,,,,,sub-18,30/07/2001,1: Male,14/10/2023,002,1: right,2023_Oct_14_1735,[FINAL]_fmri_multiplication,2021.2.3,60.04622598751384
block7.xlsx,,,,,,,,,,,,,,0,2,2,2,,,,,2,0,2,0,,,,,,,,,,,,,,,,,,,,,,,,,,,,,,,,,,,,,,922.7437654310015,922.7437654310015,922.7437654310015,922.7437654310015,,,,,,,,,sub-18,30/07/2001,1: Male,14/10/2023,002,1: right,2023_Oct_14_1735,[FINAL]_fmri_multiplication,2021.2.3,60.04622598751384
block7.xlsx,,,,,,,,,,,,,,0,2,2,2,,,,,3,0,3,0,,,,,,,,,,,,,,,,,,,,,,,,,,,,,,,,,,,,,,923.7597217719995,None,923.7597217719995,None,,,,,,,,,sub-18,30/07/2001,1: Male,14/10/2023,002,1: right,2023_Oct_14_1735,[FINAL]_fmri_multiplication,2021.2.3,60.04622598751384
block7.xlsx,,,,,,,,,,,,,,0,2,2,2,,,,,4,0,4,0,,,,,,,,,,,,,,,,,,,,,,,,,,,,,,,,,,,,,,924.7611265769992,None,924.7611265769992,None,,,,,,,,,sub-18,30/07/2001,1: Male,14/10/2023,002,1: right,2023_Oct_14_1735,[FINAL]_fmri_multiplication,2021.2.3,60.04622598751384
block7.xlsx,,,,,,,,,,,,,,0,2,2,2,,,,,5,0,5,0,,,,,,,,,,,,,,,,,,,,,,,,,,,,,,,,,,,,,,925.7595634860008,None,925.7595634860008,None,,,,,,,,,sub-18,30/07/2001,1: Male,14/10/2023,002,1: right,2023_Oct_14_1735,[FINAL]_fmri_multiplication,2021.2.3,60.04622598751384
block7.xlsx,,,,,,,,,,,,,,0,2,2,2,,,,,6,0,6,0,,,,,,,,,,,,,,,,,,,,,,,,,,,,,,,,,,,,,,926.7610363550011,None,926.7610363550011,None,,,,,,,,,sub-18,30/07/2001,1: Male,14/10/2023,002,1: right,2023_Oct_14_1735,[FINAL]_fmri_multiplication,2021.2.3,60.04622598751384
block7.xlsx,,,,,,,,,,,,,,0,2,2,2,,,,,7,0,7,0,,,,,,,,,,,,,,,,,,,,,,,,,,,,,,,,,,,,,,927.7602915,None,927.7602915,None,,,,,,,,,sub-18,30/07/2001,1: Male,14/10/2023,002,1: right,2023_Oct_14_1735,[FINAL]_fmri_multiplication,2021.2.3,60.04622598751384
block7.xlsx,,,,,,,,,,,,,,0,2,2,2,,,,,8,0,8,0,,,,,,,,,,,,,,,,,,,,,,,,,,,,,,,,,,,,,,928.7596375500034,None,928.7596375500034,None,,,,,,,,,sub-18,30/07/2001,1: Male,14/10/2023,002,1: right,2023_Oct_14_1735,[FINAL]_fmri_multiplication,2021.2.3,60.04622598751384
block7.xlsx,,,,,,,,,,,,,,0,2,2,2,,,,,9,0,9,0,,,,,,,,,,,,,,,,,,,,,,,,,,,,,,,,,,,,,,929.7623038920028,None,929.7623038920028,None,,,,,,,,,sub-18,30/07/2001,1: Male,14/10/2023,002,1: right,2023_Oct_14_1735,[FINAL]_fmri_multiplication,2021.2.3,60.04622598751384
block7.xlsx,,,,,,,,,,,,,,0,2,2,2,,,,,10,0,10,0,,,,,,,,,,,,,,,,,,,,,,,,,,,,,,,,,,,,,,930.7610858439984,None,930.7610858439984,None,,,,,,,,,sub-18,30/07/2001,1: Male,14/10/2023,002,1: right,2023_Oct_14_1735,[FINAL]_fmri_multiplication,2021.2.3,60.04622598751384
block7.xlsx,,,,,,,,,,,,,,0,2,2,2,,,,,11,0,11,0,,,,,,,,,,,,,,,,,,,,,,,,,,,,,,,,,,,,,,931.7603600990005,None,931.7603600990005,None,,,,,,,,,sub-18,30/07/2001,1: Male,14/10/2023,002,1: right,2023_Oct_14_1735,[FINAL]_fmri_multiplication,2021.2.3,60.04622598751384
block7.xlsx,,,,,,,,,,,,,,0,2,2,2,,,,,12,0,12,0,,,,,,,,,,,,,,,,,,,,,,,,,,,,,,,,,,,,,,932.7593523420037,None,932.7593523420037,None,,,,,,,,,sub-18,30/07/2001,1: Male,14/10/2023,002,1: right,2023_Oct_14_1735,[FINAL]_fmri_multiplication,2021.2.3,60.04622598751384
block7.xlsx,,,,,,,,,,,,,,0,2,2,2,,,,,13,0,13,0,,,,,,,,,,,,,,,,,,,,,,,,,,,,,,,,,,,,,,933.7599010090016,None,933.7599010090016,None,,,,,,,,,sub-18,30/07/2001,1: Male,14/10/2023,002,1: right,2023_Oct_14_1735,[FINAL]_fmri_multiplication,2021.2.3,60.04622598751384
block7.xlsx,,,,,,,,,,,,,,0,2,2,2,,,,,14,0,14,0,,,,,,,,,,,,,,,,,,,,,,,,,,,,,,,,,,,,,,934.7586750899973,None,934.7586750899973,None,,,,,,,,,sub-18,30/07/2001,1: Male,14/10/2023,002,1: right,2023_Oct_14_1735,[FINAL]_fmri_multiplication,2021.2.3,60.04622598751384
block7.xlsx,,,,,,,,,,,,,,0,2,2,2,,,,,15,0,15,0,,,,,,,,,,,,,,,,,,,,,,,,,,,,,,,,,,,,,,935.7620768790039,None,935.7620768790039,None,,,,,,,,,sub-18,30/07/2001,1: Male,14/10/2023,002,1: right,2023_Oct_14_1735,[FINAL]_fmri_multiplication,2021.2.3,60.04622598751384
block7.xlsx,,,,,,,,,,,,,,0,2,2,2,,,,,16,0,16,0,,,,,,,,,,,,,,,,,,,,,,,,,,,,,,,,,,,,,,936.7619940219993,None,936.7619940219993,None,,,,,,,,,sub-18,30/07/2001,1: Male,14/10/2023,002,1: right,2023_Oct_14_1735,[FINAL]_fmri_multiplication,2021.2.3,60.04622598751384
block7.xlsx,,,,,,,,,,,,,,0,2,2,2,,,,,17,0,17,0,,,,,,,,,,,,,,,,,,,,,,,,,,,,,,,,,,,,,,937.7600133089982,None,937.7600133089982,None,,,,,,,,,sub-18,30/07/2001,1: Male,14/10/2023,002,1: right,2023_Oct_14_1735,[FINAL]_fmri_multiplication,2021.2.3,60.04622598751384
block7.xlsx,,,,,,,,,,,,,,0,2,2,2,,,,,18,0,18,0,,,,,,,,,,,,,,,,,,,,,,,,,,,,,,,,,,,,,,938.7588406,None,938.7588406,None,,,,,,,,,sub-18,30/07/2001,1: Male,14/10/2023,002,1: right,2023_Oct_14_1735,[FINAL]_fmri_multiplication,2021.2.3,60.04622598751384
block7.xlsx,,,,,,,,,,,,,,0,2,2,2,,,,,19,0,19,0,,,,,,,,,,,,,,,,,,,,,,,,,,,,,,,,,,,,,,939.7602453309992,None,939.7602453309992,None,,,,,,,,,sub-18,30/07/2001,1: Male,14/10/2023,002,1: right,2023_Oct_14_1735,[FINAL]_fmri_multiplication,2021.2.3,60.04622598751384
block7.xlsx,,,,,,,,,,,,,,0,2,2,2,,,,,20,0,20,0,,,,,,,,,,,,,,,,,,,,,,,,,,,,,,,,,,,,,,940.7594543330015,None,940.7594543330015,None,,,,,,,,,sub-18,30/07/2001,1: Male,14/10/2023,002,1: right,2023_Oct_14_1735,[FINAL]_fmri_multiplication,2021.2.3,60.04622598751384
block7.xlsx,,,,,,,,,,,,,,0,2,2,2,,,,,21,0,21,0,,,,,,,,,,,,,,,,,,,,,,,,,,,,,,,,,,,,,,941.7590873949994,None,941.7590873949994,None,,,,,,,,,sub-18,30/07/2001,1: Male,14/10/2023,002,1: right,2023_Oct_14_1735,[FINAL]_fmri_multiplication,2021.2.3,60.04622598751384
block7.xlsx,,,,,,,,,,,,,,0,2,2,2,,,,,22,0,22,0,,,,,,,,,,,,,,,,,,,,,,,,,,,,,,,,,,,,,,942.7589613429991,None,942.7589613429991,None,,,,,,,,,sub-18,30/07/2001,1: Male,14/10/2023,002,1: right,2023_Oct_14_1735,[FINAL]_fmri_multiplication,2021.2.3,60.04622598751384
block7.xlsx,,,,,,,,,,,,,,0,2,2,2,,,,,23,0,23,0,,,,,,,,,,,,,,,,,,,,,,,,,,,,,,,,,,,,,,943.7580101629974,None,943.7580101629974,None,,,,,,,,,sub-18,30/07/2001,1: Male,14/10/2023,002,1: right,2023_Oct_14_1735,[FINAL]_fmri_multiplication,2021.2.3,60.04622598751384
block7.xlsx,,,,,,,,,,,,,,0,2,2,2,,,,,24,0,24,0,,,,,,,,,,,,,,,,,,,,,,,,,,,,,,,,,,,,,,944.7590465909998,None,944.7590465909998,None,,,,,,,,,sub-18,30/07/2001,1: Male,14/10/2023,002,1: right,2023_Oct_14_1735,[FINAL]_fmri_multiplication,2021.2.3,60.04622598751384
block7.xlsx,,,,,,,,,,,,,,0,2,2,2,,,,,25,0,25,0,,,,,,,,,,,,,,,,,,,,,,,,,,,,,,,,,,,,,,945.7591207,None,945.7591207,None,,,,,,,,,sub-18,30/07/2001,1: Male,14/10/2023,002,1: right,2023_Oct_14_1735,[FINAL]_fmri_multiplication,2021.2.3,60.04622598751384
block7.xlsx,,,,,,,,,,,,,,0,2,2,2,,,,,26,0,26,0,,,,,,,,,,,,,,,,,,,,,,,,,,,,,,,,,,,,,,946.7590736149978,None,946.7590736149978,None,,,,,,,,,sub-18,30/07/2001,1: Male,14/10/2023,002,1: right,2023_Oct_14_1735,[FINAL]_fmri_multiplication,2021.2.3,60.04622598751384
block7.xlsx,,,,,,,,,,,,,,0,2,2,2,,,,,27,0,27,0,,,,,,,,,,,,,,,,,,,,,,,,,,,,,,,,,,,,,,947.7592019580006,None,947.7592019580006,None,,,,,,,,,sub-18,30/07/2001,1: Male,14/10/2023,002,1: right,2023_Oct_14_1735,[FINAL]_fmri_multiplication,2021.2.3,60.04622598751384
block7.xlsx,,,,,,,,,,,,,,0,2,2,2,,,,,28,0,28,0,,,,,,,,,,,,,,,,,,,,,,,,,,,,,,,,,,,,,,948.7596474780039,None,948.7596474780039,None,,,,,,,,,sub-18,30/07/2001,1: Male,14/10/2023,002,1: right,2023_Oct_14_1735,[FINAL]_fmri_multiplication,2021.2.3,60.04622598751384
block7.xlsx,,,,,,,,,,,,,,0,2,2,2,,,,,29,0,29,0,,,,,,,,,,,,,,,,,,,,,,,,,,,,,,,,,,,,,,949.7596348379993,None,949.7596348379993,None,,,,,,,,,sub-18,30/07/2001,1: Male,14/10/2023,002,1: right,2023_Oct_14_1735,[FINAL]_fmri_multiplication,2021.2.3,60.04622598751384
block7.xlsx,,,,,,,,,,,,,,0,2,2,2,,,,,,,,,,,,,,,,,,,,,,,,,,,,,,,,,,,,,,,,,,,,,,,,,,,,,,,,,,sub-18,30/07/2001,1: Male,14/10/2023,002,1: right,2023_Oct_14_1735,[FINAL]_fmri_multiplication,2021.2.3,60.04622598751384
block8.xlsx,10,7.5,4.2,9 x 9,81,16,9 x 9 = 81,large-sized_low-interference,large-sized,low-interference,6,CorrectRESP,a,0,3,3,3,0,0,0,0,,,,,,,,,,,,,950.7603947229982,None,960.7827310440007,None,961.2592955740001,None,963.2596399569993,None,964.0097038869972,None,964.2595241740019,None,964.2595241740019,None,d,0,0.6507353819979471,964.2595241740019,None,964.9436028989985,None,964.9436028989985,None,d,0.5187119250040269,964.9436028989985,None,965.4930655370008,None,,,,,,,,,,,,,sub-18,30/07/2001,1: Male,14/10/2023,002,1: right,2023_Oct_14_1735,[FINAL]_fmri_multiplication,2021.2.3,60.04622598751384
block8.xlsx,21.7,7.5,5.5,5 x 4,20,8,4 x 5 = 20,small-sized_high-interference,small-sized,high-interference,8,CorrectRESP,a,0,3,3,3,0,1,1,1,,,,,,,,,,,,,,,969.6930413859991,None,970.1926731189997,None,972.1927122200032,None,972.9425653280014,None,973.1924785949996,None,973.1924785949996,None,d,0,0.5418722739996156,973.1924785949996,None,973.7586908819976,None,973.7586908819976,None,d,0.14356562899774872,973.7586908819976,None,973.9254570599987,None,,,,,,,,,,,,,sub-18,30/07/2001,1: Male,14/10/2023,002,1: right,2023_Oct_14_1735,[FINAL]_fmri_multiplication,2021.2.3,60.04622598751384
block8.xlsx,34.7,7.5,13.5,9 x 4,32,20,4 x 9 = 32,large-sized_high-interference,large-sized,high-interference,9,IncorrectRESP,d,0,3,3,3,0,2,2,2,,,,,,,,,,,,,,,979.4253949119993,None,979.9273620900021,None,981.9420844800006,None,982.6925935170038,None,982.9425928450037,None,982.9425928450037,None,a,0,1.6397950700047659,982.9425928450037,None,984.6089349709982,None,984.6089349709982,None,a,0.6054305399957229,984.6089349709982,None,985.2426320870036,None,,,,,,,,,,,,,sub-18,30/07/2001,1: Male,14/10/2023,002,1: right,2023_Oct_14_1735,[FINAL]_fmri_multiplication,2021.2.3,60.04622598751384
block8.xlsx,55.7,7.5,3.1,4 x 6,24,10,6 x 4 = 24,small-sized_high-interference,small-sized,high-interference,12,CorrectRESP,a,0,3,3,3,0,3,3,3,,,,,,,,,,,,,,,998.7402338,None,999.2433931960004,None,1001.2429492979973,None,1001.9926607069974,None,1002.2429557079995,None,1002.2429557079995,None,d,0,0.5953293220009073,1002.2429557079995,None,1002.859181484997,None,1002.859181484997,None,d,0.851101895,1002.859181484997,None,1003.7429879029987,None,,,,,,,,,,,,,sub-18,30/07/2001,1: Male,14/10/2023,002,1: right,2023_Oct_14_1735,[FINAL]_fmri_multiplication,2021.2.3,60.04622598751384
block8.xlsx,66.3,7.5,7.7,2 x 6,10,6,6 x 2 = 10,small-sized_low-interference,small-sized,low-interference,3,IncorrectRESP,d,0,3,3,3,0,4,4,4,,,,,,,,,,,,,,,1006.8428608130016,None,1007.3426204789976,None,1009.3426759260001,None,1010.0925462580017,None,1010.3423931500038,None,1010.3423931500038,None,a,0,0.5678698050032835,1010.3423931500038,None,1010.9420815520025,None,1010.9420815520025,None,d,0.25630294300208334,1010.9420815520025,None,1011.2239723889979,None,,,,,,,,,,,,,sub-18,30/07/2001,1: Male,14/10/2023,002,1: right,2023_Oct_14_1735,[FINAL]_fmri_multiplication,2021.2.3,60.04622598751384
block8.xlsx,81.5,7.5,6.9,7 x 7,49,18,7 x 7 = 49,large-sized_low-interference,large-sized,low-interference,7,CorrectRESP,a,0,3,3,3,0,5,5,5,,,,,,,,,,,,,,,1018.925897586003,None,1019.4257005880027,None,1021.4254903540022,None,1022.175422819997,None,1022.4254956460027,None,1022.4254956460027,None,d,0,0.620867272,1022.4254956460027,None,1023.0757484759997,None,1023.0757484759997,None,d,0.17855411000346066,1023.0757484759997,None,1023.2757272909985,None,,,,,,,,,,,,,sub-18,30/07/2001,1: Male,14/10/2023,002,1: right,2023_Oct_14_1735,[FINAL]_fmri_multiplication,2021.2.3,60.04622598751384
block8.xlsx,95.9,7.5,12.3,2 x 6,12,6,6 x 2 = 12,small-sized_low-interference,small-sized,low-interference,3,CorrectRESP,a,0,3,3,3,0,6,6,6,,,,,,,,,,,,,,,1030.1758434480034,None,1030.6759208010008,None,1032.6760351049998,None,1033.4286341169973,None,1033.678214,None,1033.678214,None,d,0,0.6081312,1033.678214,None,1034.309277242999,None,1034.309277242999,None,d,0.1611164620044292,1034.309277242999,None,1034.4925375929997,None,,,,,,,,,,,,,sub-18,30/07/2001,1: Male,14/10/2023,002,1: right,2023_Oct_14_1735,[FINAL]_fmri_multiplication,2021.2.3,60.04622598751384
block8.xlsx,115.7,7.5,2.7,7 x 8,63,22,8 x 7 = 63,large-sized_high-interference,large-sized,high-interference,9,IncorrectRESP,d,0,3,3,3,0,7,7,7,,,,,,,,,,,,,,,1046.7926458179973,None,1047.292319422002,None,1049.2928437289993,None,1050.0425368859978,None,1050.292784319001,None,1050.292784319001,None,a,0,1.2334783100013738,1050.292784319001,None,1051.559063484001,None,1051.559063484001,None,a,0.4073374009967665,1051.559063484001,None,1051.9922814670026,None,,,,,,,,,,,,,sub-18,30/07/2001,1: Male,14/10/2023,002,1: right,2023_Oct_14_1735,[FINAL]_fmri_multiplication,2021.2.3,60.04622598751384
block8.xlsx,125.9,7.5,7.8,9 x 2,16,2,2 x 9 = 16,small-sized_low-interference,small-sized,low-interference,7,IncorrectRESP,d,0,3,3,3,0,8,8,8,,,,,,,,,,,,,,,1054.692584512999,None,1055.192264,None,1057.191904524003,None,1057.9425934499995,None,1058.1919734000003,None,1058.1919734000003,None,a,0,1.2543682280011126,1058.1919734000003,None,1059.475908,None,1059.475908,None,d,0.6663475449968246,1059.475908,None,1060.1754284300005,None,,,,,,,,,,,,,sub-18,30/07/2001,1: Male,14/10/2023,002,1: right,2023_Oct_14_1735,[FINAL]_fmri_multiplication,2021.2.3,60.04622598751384
block8.xlsx,141.2,7.5,2.9,8 x 3,24,12,3 x 8 = 24,small-sized_high-interference,small-sized,high-interference,13,CorrectRESP,a,0,3,3,3,0,9,9,9,,,,,,,,,,,,,,,1067.9756828639984,None,1068.4731609370028,None,1070.4763667690022,None,1071.2259271809999,None,1071.476186529002,None,1071.476186529002,None,d,0,0.5381827279998106,1071.476186529002,None,1072.042640871001,None,1072.042640871001,None,d,0.17173399400053313,1072.042640871001,None,1072.2429980170018,None,,,,,,,,,,,,,sub-18,30/07/2001,1: Male,14/10/2023,002,1: right,2023_Oct_14_1735,[FINAL]_fmri_multiplication,2021.2.3,60.04622598751384
block8.xlsx,151.6,7.5,2,4 x 8,32,24,8 x 4 = 32,large-sized_high-interference,large-sized,high-interference,25,CorrectRESP,a,0,3,3,3,0,10,10,10,,,,,,,,,,,,,,,1075.142974,None,1075.6429126990006,None,1077.6427313819986,None,1078.3926839079977,None,1078.6425061489972,None,1078.6425061489972,None,d,0,0.8517564390058396,1078.6425061489972,None,1079.52569,None,1079.52569,None,d,0.1685759579995647,1079.52569,None,1079.725920453002,None,,,,,,,,,,,,,sub-18,30/07/2001,1: Male,14/10/2023,002,1: right,2023_Oct_14_1735,[FINAL]_fmri_multiplication,2021.2.3,60.04622598751384
block8.xlsx,161.1,7.5,13.1,9 x 9,72,16,9 x 9 = 72,large-sized_low-interference,large-sized,low-interference,6,IncorrectRESP,d,0,3,3,3,0,11,11,11,,,,,,,,,,,,,,,1081.725867639998,None,1082.2259066599981,None,1084.225986540001,None,1084.9759166219992,None,1085.2258670219999,None,1085.2258670219999,None,a,0,0.748478667,1085.2258670219999,None,1085.9921961480031,None,1085.9921961480031,None,a,0.23018259200034663,1085.9921961480031,None,1086.2421369980038,None,,,,,,,,,,,,,sub-18,30/07/2001,1: Male,14/10/2023,002,1: right,2023_Oct_14_1735,[FINAL]_fmri_multiplication,2021.2.3,60.04622598751384
block8.xlsx,181.7,7.5,2.4,5 x 4,16,8,4 x 5 = 16,small-sized_high-interference,small-sized,high-interference,8,IncorrectRESP,d,0,3,3,3,0,12,12,12,,,,,,,,,,,,,,,1099.342607116003,None,1099.8430880940032,None,1101.8426998210016,None,1102.592707466003,None,1102.843926,None,1102.843926,None,a,0,0.6663607779992162,1102.843926,None,1103.541569773999,None,1103.541569773999,None,d,0.3287834170041606,1103.541569773999,None,1103.892601,None,,,,,,,,,,,,,sub-18,30/07/2001,1: Male,14/10/2023,002,1: right,2023_Oct_14_1735,[FINAL]_fmri_multiplication,2021.2.3,60.04622598751384
block8.xlsx,191.6,7.5,5.7,7 x 7,56,18,7 x 7 = 56,large-sized_low-interference,large-sized,low-interference,7,IncorrectRESP,d,0,3,3,3,0,13,13,13,,,,,,,,,,,,,,,1106.2929711939978,None,1106.793074033998,None,1108.7929956760017,None,1109.543052085999,None,1109.791812571002,None,1109.791812571002,None,a,0,0.6145419029999175,1109.791812571002,None,1110.4245236349998,None,1110.4245236349998,None,d,0.2937502820059308,1110.4245236349998,None,1110.7425452319985,None,,,,,,,,,,,,,sub-18,30/07/2001,1: Male,14/10/2023,002,1: right,2023_Oct_14_1735,[FINAL]_fmri_multiplication,2021.2.3,60.04622598751384
block8.xlsx,204.8,7.5,2.2,9 x 2,18,2,2 x 9 = 18,small-sized_low-interference,small-sized,low-interference,7,CorrectRESP,a,0,3,3,3,0,14,14,14,,,,,,,,,,,,,,,1116.4427133149984,None,1116.9422006319983,None,1118.942713608998,None,1119.6924136569978,None,1119.9424612179973,None,1119.9424612179973,None,d,0,1.0319335560052423,1119.9424612179973,None,1120.9923575590037,None,1120.9923575590037,None,d,0.3420149820012739,1120.9923575590037,None,1121.3591498330024,None,,,,,,,,,,,,,sub-18,30/07/2001,1: Male,14/10/2023,002,1: right,2023_Oct_14_1735,[FINAL]_fmri_multiplication,2021.2.3,60.04622598751384
block8.xlsx,214.5,7.5,5.2,8 x 3,21,12,3 x 8 = 21,small-sized_high-interference,small-sized,high-interference,13,IncorrectRESP,d,0,3,3,3,0,15,15,15,,,,,,,,,,,,,,,1123.5591301690038,None,1124.0590053489977,None,1126.0582286300014,None,1126.8092475979975,None,1127.0590972940008,None,1127.0590972940008,None,a,0,0.6671806039958028,1127.0590972940008,None,1127.7586695059981,None,1127.7586695059981,None,d,0.2236723219975829,1127.7586695059981,None,1128.0089915850003,None,,,,,,,,,,,,,sub-18,30/07/2001,1: Male,14/10/2023,002,1: right,2023_Oct_14_1735,[FINAL]_fmri_multiplication,2021.2.3,60.04622598751384
block8.xlsx,227.2,7.5,3.8,4 x 4,20,4,4 x 4 = 20,small-sized_low-interference,small-sized,low-interference,5,IncorrectRESP,d,0,3,3,3,0,16,16,16,,,,,,,,,,,,,,,1133.2091084410022,None,1133.7087712750035,None,1135.709483620998,None,1136.4593478209972,None,1136.7096954909975,None,1136.7096954909975,None,a,0,0.6327394399995683,1136.7096954909975,None,1137.3594624849975,None,1137.3594624849975,None,d,0.35884365400124807,1137.3594624849975,None,1137.7426348269983,None,,,,,,,,,,,,,sub-18,30/07/2001,1: Male,14/10/2023,002,1: right,2023_Oct_14_1735,[FINAL]_fmri_multiplication,2021.2.3,60.04622598751384
block8.xlsx,238.5,7.5,2,4 x 6,28,10,6 x 4 = 28,small-sized_high-interference,small-sized,high-interference,12,IncorrectRESP,d,0,3,3,3,0,17,17,17,,,,,,,,,,,,,,,1141.5429311270018,None,1142.0430400250007,None,1144.0430247520017,None,1144.793125,None,1145.0432164140038,None,1145.0432164140038,None,a,0,0.6750873100027093,1145.0432164140038,None,1145.742541720003,None,1145.742541720003,None,d,0.46374876300251344,1145.742541720003,None,1146.2252408620006,None,,,,,,,,,,,,,sub-18,30/07/2001,1: Male,14/10/2023,002,1: right,2023_Oct_14_1735,[FINAL]_fmri_multiplication,2021.2.3,60.04622598751384
block8.xlsx,248,7.5,4,6 x 5,30,14,5 x 6 = 30,large-sized_low-interference,large-sized,low-interference,6,CorrectRESP,a,0,3,3,3,0,18,18,18,,,,,,,,,,,,,,,1148.226047965003,None,1148.7257441349975,None,1150.7260565939978,None,1151.475832881999,None,1151.7254730640016,None,1151.7254730640016,None,d,0,0.5448325780016603,1151.7254730640016,None,1152.2921583820025,None,1152.2921583820025,None,d,0.17815190799592528,1152.2921583820025,None,1152.4922746190023,None,,,,,,,,,,,,,sub-18,30/07/2001,1: Male,14/10/2023,002,1: right,2023_Oct_14_1735,[FINAL]_fmri_multiplication,2021.2.3,60.04622598751384
block8.xlsx,259.5,7.5,11.3,7 x 8,56,22,8 x 7 = 56,large-sized_high-interference,large-sized,high-interference,9,CorrectRESP,a,0,3,3,3,0,19,19,19,,,,,,,,,,,,,,,1156.4925551529996,None,1156.9923464429994,None,1158.992580453003,None,1159.7426015950005,None,1159.992823579003,None,1159.992823579003,None,None,0,,1159.992823579003,None,1161.9918426699987,None,1161.9918426699987,None,a,0.7904785460050334,1161.9918426699987,None,1162.8089360999984,None,,,,,,,,,,,,,sub-18,30/07/2001,1: Male,14/10/2023,002,1: right,2023_Oct_14_1735,[FINAL]_fmri_multiplication,2021.2.3,60.04622598751384
block8.xlsx,278.3,7.5,10.9,6 x 5,36,14,5 x 6 = 36,large-sized_low-interference,large-sized,low-interference,6,IncorrectRESP,d,0,3,3,3,0,20,20,20,,,,,,,,,,,,,,,1174.117669096002,None,1174.6277807170009,None,1176.625875376998,None,1177.3761767130018,None,1177.6286397510012,None,1177.6286397510012,None,a,0,0.5457312260041363,1177.6286397510012,None,1178.1929261139994,None,1178.1929261139994,None,d,0.21356087700405624,1178.1929261139994,None,1178.4258582810035,None,,,,,,,,,,,,,sub-18,30/07/2001,1: Male,14/10/2023,002,1: right,2023_Oct_14_1735,[FINAL]_fmri_multiplication,2021.2.3,60.04622598751384
block8.xlsx,296.7,7.5,3.5,9 x 4,36,20,4 x 9 = 36,large-sized_high-interference,large-sized,high-interference,9,CorrectRESP,a,0,3,3,3,0,21,21,21,,,,,,,,,,,,,,,1189.3258394359982,None,1189.8258368380011,None,1191.825968496003,None,1192.5759696819987,None,1192.825278471999,None,1192.825278471999,None,d,0,0.45298716999968747,1192.825278471999,None,1193.3089280460008,None,1193.3089280460008,None,d,0.16934531900187721,1193.3089280460008,None,1193.5093678349986,None,,,,,,,,,,,,,sub-18,30/07/2001,1: Male,14/10/2023,002,1: right,2023_Oct_14_1735,[FINAL]_fmri_multiplication,2021.2.3,60.04622598751384
block8.xlsx,307.7,7.5,2.9,4 x 4,16,4,4 x 4 = 16,small-sized_low-interference,small-sized,low-interference,5,CorrectRESP,a,0,3,3,3,0,22,22,22,,,,,,,,,,,,,,,1197.009276230001,None,1197.5091004949973,None,1199.5087648169974,None,1200.2591909619987,None,1200.5092813269985,None,1200.5092813269985,None,d,0,0.489087769,1200.5092813269985,None,1201.0258670150033,None,1201.0258670150033,None,d,0.17239780000090832,1201.0258670150033,None,1201.2252476329995,None,,,,,,,,,,,,,sub-18,30/07/2001,1: Male,14/10/2023,002,1: right,2023_Oct_14_1735,[FINAL]_fmri_multiplication,2021.2.3,60.04622598751384
block8.xlsx,318.1,7.5,9.4,4 x 8,28,24,8 x 4 = 28,large-sized_high-interference,large-sized,high-interference,25,IncorrectRESP,d,0,3,3,3,0,23,23,23,,,,,,,,,,,,,,,1204.1258726839988,None,1204.626026996997,None,1206.6260358239997,None,1207.3758576110013,None,1207.6272539360034,None,1207.6272539360034,None,a,0,0.7151245000059134,1207.6272539360034,None,1208.3593773360008,None,1208.3593773360008,None,d,0.3188853019964881,1208.3593773360008,None,1208.7094627509978,None,,,,,,,,,,,,,sub-18,30/07/2001,1: Male,14/10/2023,002,1: right,2023_Oct_14_1735,[FINAL]_fmri_multiplication,2021.2.3,60.04622598751384
block8.xlsx,,,,,,,,,,,,,,0,3,3,3,,,,,0,0,0,0,,,,,,,,,,,,,,,,,,,,,,,,,,,,,,,,,,,,,,1218.1100843979984,None,1218.1100843979984,None,,,,,,,,,sub-18,30/07/2001,1: Male,14/10/2023,002,1: right,2023_Oct_14_1735,[FINAL]_fmri_multiplication,2021.2.3,60.04622598751384
block8.xlsx,,,,,,,,,,,,,,0,3,3,3,,,,,1,0,1,0,,,,,,,,,,,,,,,,,,,,,,,,,,,,,,,,,,,,,,1219.1281946240015,None,1219.1281946240015,None,,,,,,,,,sub-18,30/07/2001,1: Male,14/10/2023,002,1: right,2023_Oct_14_1735,[FINAL]_fmri_multiplication,2021.2.3,60.04622598751384
block8.xlsx,,,,,,,,,,,,,,0,3,3,3,,,,,2,0,2,0,,,,,,,,,,,,,,,,,,,,,,,,,,,,,,,,,,,,,,1220.125651692997,None,1220.125651692997,None,,,,,,,,,sub-18,30/07/2001,1: Male,14/10/2023,002,1: right,2023_Oct_14_1735,[FINAL]_fmri_multiplication,2021.2.3,60.04622598751384
block8.xlsx,,,,,,,,,,,,,,0,3,3,3,,,,,3,0,3,0,,,,,,,,,,,,,,,,,,,,,,,,,,,,,,,,,,,,,,1221.1245274299981,None,1221.1245274299981,None,,,,,,,,,sub-18,30/07/2001,1: Male,14/10/2023,002,1: right,2023_Oct_14_1735,[FINAL]_fmri_multiplication,2021.2.3,60.04622598751384
block8.xlsx,,,,,,,,,,,,,,0,3,3,3,,,,,4,0,4,0,,,,,,,,,,,,,,,,,,,,,,,,,,,,,,,,,,,,,,1222.1256853870036,None,1222.1256853870036,None,,,,,,,,,sub-18,30/07/2001,1: Male,14/10/2023,002,1: right,2023_Oct_14_1735,[FINAL]_fmri_multiplication,2021.2.3,60.04622598751384
block8.xlsx,,,,,,,,,,,,,,0,3,3,3,,,,,5,0,5,0,,,,,,,,,,,,,,,,,,,,,,,,,,,,,,,,,,,,,,1223.127621153002,None,1223.127621153002,None,,,,,,,,,sub-18,30/07/2001,1: Male,14/10/2023,002,1: right,2023_Oct_14_1735,[FINAL]_fmri_multiplication,2021.2.3,60.04622598751384
block8.xlsx,,,,,,,,,,,,,,0,3,3,3,,,,,6,0,6,0,,,,,,,,,,,,,,,,,,,,,,,,,,,,,,,,,,,,,,1224.1258400690022,None,1224.1258400690022,None,,,,,,,,,sub-18,30/07/2001,1: Male,14/10/2023,002,1: right,2023_Oct_14_1735,[FINAL]_fmri_multiplication,2021.2.3,60.04622598751384
block8.xlsx,,,,,,,,,,,,,,0,3,3,3,,,,,7,0,7,0,,,,,,,,,,,,,,,,,,,,,,,,,,,,,,,,,,,,,,1225.1266132269993,None,1225.1266132269993,None,,,,,,,,,sub-18,30/07/2001,1: Male,14/10/2023,002,1: right,2023_Oct_14_1735,[FINAL]_fmri_multiplication,2021.2.3,60.04622598751384
block8.xlsx,,,,,,,,,,,,,,0,3,3,3,,,,,8,0,8,0,,,,,,,,,,,,,,,,,,,,,,,,,,,,,,,,,,,,,,1226.1262352919985,None,1226.1262352919985,None,,,,,,,,,sub-18,30/07/2001,1: Male,14/10/2023,002,1: right,2023_Oct_14_1735,[FINAL]_fmri_multiplication,2021.2.3,60.04622598751384
block8.xlsx,,,,,,,,,,,,,,0,3,3,3,,,,,9,0,9,0,,,,,,,,,,,,,,,,,,,,,,,,,,,,,,,,,,,,,,1227.1264326069977,None,1227.1264326069977,None,,,,,,,,,sub-18,30/07/2001,1: Male,14/10/2023,002,1: right,2023_Oct_14_1735,[FINAL]_fmri_multiplication,2021.2.3,60.04622598751384
block8.xlsx,,,,,,,,,,,,,,0,3,3,3,,,,,10,0,10,0,,,,,,,,,,,,,,,,,,,,,,,,,,,,,,,,,,,,,,1228.126314211997,None,1228.126314211997,None,,,,,,,,,sub-18,30/07/2001,1: Male,14/10/2023,002,1: right,2023_Oct_14_1735,[FINAL]_fmri_multiplication,2021.2.3,60.04622598751384
block8.xlsx,,,,,,,,,,,,,,0,3,3,3,,,,,11,0,11,0,,,,,,,,,,,,,,,,,,,,,,,,,,,,,,,,,,,,,,1229.1262401989989,None,1229.1262401989989,None,,,,,,,,,sub-18,30/07/2001,1: Male,14/10/2023,002,1: right,2023_Oct_14_1735,[FINAL]_fmri_multiplication,2021.2.3,60.04622598751384
block8.xlsx,,,,,,,,,,,,,,0,3,3,3,,,,,12,0,12,0,,,,,,,,,,,,,,,,,,,,,,,,,,,,,,,,,,,,,,1230.1265560520005,None,1230.1265560520005,None,,,,,,,,,sub-18,30/07/2001,1: Male,14/10/2023,002,1: right,2023_Oct_14_1735,[FINAL]_fmri_multiplication,2021.2.3,60.04622598751384
block8.xlsx,,,,,,,,,,,,,,0,3,3,3,,,,,13,0,13,0,,,,,,,,,,,,,,,,,,,,,,,,,,,,,,,,,,,,,,1231.1264439589977,None,1231.1264439589977,None,,,,,,,,,sub-18,30/07/2001,1: Male,14/10/2023,002,1: right,2023_Oct_14_1735,[FINAL]_fmri_multiplication,2021.2.3,60.04622598751384
block8.xlsx,,,,,,,,,,,,,,0,3,3,3,,,,,14,0,14,0,,,,,,,,,,,,,,,,,,,,,,,,,,,,,,,,,,,,,,1232.126266,None,1232.126266,None,,,,,,,,,sub-18,30/07/2001,1: Male,14/10/2023,002,1: right,2023_Oct_14_1735,[FINAL]_fmri_multiplication,2021.2.3,60.04622598751384
block8.xlsx,,,,,,,,,,,,,,0,3,3,3,,,,,15,0,15,0,,,,,,,,,,,,,,,,,,,,,,,,,,,,,,,,,,,,,,1233.1262336140026,None,1233.1262336140026,None,,,,,,,,,sub-18,30/07/2001,1: Male,14/10/2023,002,1: right,2023_Oct_14_1735,[FINAL]_fmri_multiplication,2021.2.3,60.04622598751384
block8.xlsx,,,,,,,,,,,,,,0,3,3,3,,,,,16,0,16,0,,,,,,,,,,,,,,,,,,,,,,,,,,,,,,,,,,,,,,1234.1261443939984,None,1234.1261443939984,None,,,,,,,,,sub-18,30/07/2001,1: Male,14/10/2023,002,1: right,2023_Oct_14_1735,[FINAL]_fmri_multiplication,2021.2.3,60.04622598751384
block8.xlsx,,,,,,,,,,,,,,0,3,3,3,,,,,17,0,17,0,,,,,,,,,,,,,,,,,,,,,,,,,,,,,,,,,,,,,,1235.1262772899972,None,1235.1262772899972,None,,,,,,,,,sub-18,30/07/2001,1: Male,14/10/2023,002,1: right,2023_Oct_14_1735,[FINAL]_fmri_multiplication,2021.2.3,60.04622598751384
block8.xlsx,,,,,,,,,,,,,,0,3,3,3,,,,,18,0,18,0,,,,,,,,,,,,,,,,,,,,,,,,,,,,,,,,,,,,,,1236.1398787160033,None,1236.1398787160033,None,,,,,,,,,sub-18,30/07/2001,1: Male,14/10/2023,002,1: right,2023_Oct_14_1735,[FINAL]_fmri_multiplication,2021.2.3,60.04622598751384
block8.xlsx,,,,,,,,,,,,,,0,3,3,3,,,,,19,0,19,0,,,,,,,,,,,,,,,,,,,,,,,,,,,,,,,,,,,,,,1237.1276020379992,None,1237.1276020379992,None,,,,,,,,,sub-18,30/07/2001,1: Male,14/10/2023,002,1: right,2023_Oct_14_1735,[FINAL]_fmri_multiplication,2021.2.3,60.04622598751384
block8.xlsx,,,,,,,,,,,,,,0,3,3,3,,,,,20,0,20,0,,,,,,,,,,,,,,,,,,,,,,,,,,,,,,,,,,,,,,1238.1263904859989,None,1238.1263904859989,None,,,,,,,,,sub-18,30/07/2001,1: Male,14/10/2023,002,1: right,2023_Oct_14_1735,[FINAL]_fmri_multiplication,2021.2.3,60.04622598751384
block8.xlsx,,,,,,,,,,,,,,0,3,3,3,,,,,21,0,21,0,,,,,,,,,,,,,,,,,,,,,,,,,,,,,,,,,,,,,,1239.1285048980026,None,1239.1285048980026,None,,,,,,,,,sub-18,30/07/2001,1: Male,14/10/2023,002,1: right,2023_Oct_14_1735,[FINAL]_fmri_multiplication,2021.2.3,60.04622598751384
block8.xlsx,,,,,,,,,,,,,,0,3,3,3,,,,,22,0,22,0,,,,,,,,,,,,,,,,,,,,,,,,,,,,,,,,,,,,,,1240.128466694001,None,1240.128466694001,None,,,,,,,,,sub-18,30/07/2001,1: Male,14/10/2023,002,1: right,2023_Oct_14_1735,[FINAL]_fmri_multiplication,2021.2.3,60.04622598751384
block8.xlsx,,,,,,,,,,,,,,0,3,3,3,,,,,23,0,23,0,,,,,,,,,,,,,,,,,,,,,,,,,,,,,,,,,,,,,,1241.128152170004,None,1241.128152170004,None,,,,,,,,,sub-18,30/07/2001,1: Male,14/10/2023,002,1: right,2023_Oct_14_1735,[FINAL]_fmri_multiplication,2021.2.3,60.04622598751384
block8.xlsx,,,,,,,,,,,,,,0,3,3,3,,,,,24,0,24,0,,,,,,,,,,,,,,,,,,,,,,,,,,,,,,,,,,,,,,1242.1281765779968,None,1242.1281765779968,None,,,,,,,,,sub-18,30/07/2001,1: Male,14/10/2023,002,1: right,2023_Oct_14_1735,[FINAL]_fmri_multiplication,2021.2.3,60.04622598751384
block8.xlsx,,,,,,,,,,,,,,0,3,3,3,,,,,25,0,25,0,,,,,,,,,,,,,,,,,,,,,,,,,,,,,,,,,,,,,,1243.1278313050025,None,1243.1278313050025,None,,,,,,,,,sub-18,30/07/2001,1: Male,14/10/2023,002,1: right,2023_Oct_14_1735,[FINAL]_fmri_multiplication,2021.2.3,60.04622598751384
block8.xlsx,,,,,,,,,,,,,,0,3,3,3,,,,,26,0,26,0,,,,,,,,,,,,,,,,,,,,,,,,,,,,,,,,,,,,,,1244.1278377860035,None,1244.1278377860035,None,,,,,,,,,sub-18,30/07/2001,1: Male,14/10/2023,002,1: right,2023_Oct_14_1735,[FINAL]_fmri_multiplication,2021.2.3,60.04622598751384
block8.xlsx,,,,,,,,,,,,,,0,3,3,3,,,,,27,0,27,0,,,,,,,,,,,,,,,,,,,,,,,,,,,,,,,,,,,,,,1245.1278212119978,None,1245.1278212119978,None,,,,,,,,,sub-18,30/07/2001,1: Male,14/10/2023,002,1: right,2023_Oct_14_1735,[FINAL]_fmri_multiplication,2021.2.3,60.04622598751384
block8.xlsx,,,,,,,,,,,,,,0,3,3,3,,,,,28,0,28,0,,,,,,,,,,,,,,,,,,,,,,,,,,,,,,,,,,,,,,1246.1284020940038,None,1246.1284020940038,None,,,,,,,,,sub-18,30/07/2001,1: Male,14/10/2023,002,1: right,2023_Oct_14_1735,[FINAL]_fmri_multiplication,2021.2.3,60.04622598751384
block8.xlsx,,,,,,,,,,,,,,0,3,3,3,,,,,29,0,29,0,,,,,,,,,,,,,,,,,,,,,,,,,,,,,,,,,,,,,,1247.126146425002,None,1247.126146425002,None,,,,,,,,,sub-18,30/07/2001,1: Male,14/10/2023,002,1: right,2023_Oct_14_1735,[FINAL]_fmri_multiplication,2021.2.3,60.04622598751384
block8.xlsx,,,,,,,,,,,,,,0,3,3,3,,,,,,,,,,,,,,,,,,,,,,,,,,,,,,,,,,,,,,,,,,,,,,,,,,,,,,,,,,sub-18,30/07/2001,1: Male,14/10/2023,002,1: right,2023_Oct_14_1735,[FINAL]_fmri_multiplication,2021.2.3,60.04622598751384
,,,,,,,,,,,,,,,,,,,,,,,,,,,,,,,,,,,,,,,,,,,,,,,,,,,,,,,,,,,,,,,,,,,1248.1405757130015,1250.1430277900035,1250.1097699120037,None,y,414.3919849660015,1250.1097699120037,None,sub-18,30/07/2001,1: Male,14/10/2023,002,1: right,2023_Oct_14_1735,[FINAL]_fmri_multiplication,2021.2.3,60.04622598751384