blocks_file,start,dur,rest,mult_problemB,mult_options,stim_trial,mult_stim,type,ProblemSize,InterferenceLH,InterferenceLevel,mult_type,corrRESP,blocks_set.thisRepN,blocks_set.thisTrialN,blocks_set.thisN,blocks_set.thisIndex,TRIALS.thisRepN,TRIALS.thisTrialN,TRIALS.thisN,TRIALS.thisIndex,timer_loop.thisRepN,timer_loop.thisTrialN,timer_loop.thisN,timer_loop.thisIndex,WAIT_TEXT.started,WAIT_TEXT.stopped,scan_start_trigger.keys,scan_start_trigger.rt,scan_start_trigger.started,scan_start_trigger.stopped,MAIN_SCREEN.started,MAIN_SCREEN.stopped,Block_Text.started,Block_Text.stopped,asterisk500ms.started,asterisk500ms.stopped,mult_question_text.started,mult_question_text.stopped,equal_text.started,equal_text.stopped,blank250_text.started,blank250_text.stopped,Mult_OPTION.started,Mult_OPTION.stopped,Mult_YN.started,Mult_YN.stopped,Mult_Resp.keys,Mult_Resp.corr,Mult_Resp.rt,Mult_Resp.started,Mult_Resp.stopped,Strategy_Q.started,Strategy_Q.stopped,Strategy_Option.started,Strategy_Option.stopped,Strategy_RESP.keys,Strategy_RESP.rt,Strategy_RESP.started,Strategy_RESP.stopped,jitters.started,jitters.stopped,resting_text.started,resting_text.stopped,countdown_timer.started,countdown_timer.stopped,participant,Date of birth (DD/MM/YEAR),gender,Testing Date (DD/MM/YEAR),session,handedness,date,expName,psychopyVersion,frameRate
,,,,,,,,,,,,,,,,,,,,,,,,,,36.11003006700048,None,s,18.880011434001062,36.11003006700048,None,,,,,,,,,,,,,,,,,,,,,,,,,,,,,,,,,,,,sub-02,26/07/2002,2: Female,15/07/2023,002,1: right,2023_Jul_15_1250,[FINAL]_fmri_multiplication,2021.2.3,60.04192307195406
block5.xlsx,10,7.5,4.6,3 x 6,18,7,6 x 3 = 18,small-sized_high-interference,small-sized,high-interference,8,CorrectRESP,a,0,0,0,0,0,0,0,0,,,,,,,,,,,55.022283726999376,None,60.04265279199899,None,70.04638087899912,None,70.52571982200061,None,72.52218546299991,None,73.27244049500041,None,73.52355548500054,None,73.52355548500054,None,d,0,0.3570109760003106,73.52355548500054,None,73.90402737899967,None,73.90402737899967,None,d,0.26446512599977723,73.90402737899967,None,74.18861383100011,None,,,,,sub-02,26/07/2002,2: Female,15/07/2023,002,1: right,2023_Jul_15_1250,[FINAL]_fmri_multiplication,2021.2.3,60.04192307195406
block5.xlsx,22.1,7.5,7,9 x 9,72,16,9 x 9 = 72,large-sized_low-interference,large-sized,low-interference,6,IncorrectRESP,d,0,0,0,0,0,1,1,1,,,,,,,,,,,,,,,78.78906151800038,None,79.2900145,None,81.28919240799951,None,82.03934944,None,82.29191038799945,None,82.29191038799945,None,a,0,0.42875902299965674,82.29191038799945,None,82.73887101199944,None,82.73887101199944,None,d,0.22966526099844486,82.73887101199944,None,82.98890612799914,None,,,,,sub-02,26/07/2002,2: Female,15/07/2023,002,1: right,2023_Jul_15_1250,[FINAL]_fmri_multiplication,2021.2.3,60.04192307195406
block5.xlsx,36.6,7.5,4.4,2 x 6,12,6,6 x 2 = 12,small-sized_low-interference,small-sized,low-interference,3,CorrectRESP,a,0,0,0,0,0,2,2,2,,,,,,,,,,,,,,,89.98951483699966,None,90.48946184399938,None,92.48953658100072,None,93.23953314900064,None,93.48908214,None,93.48908214,None,d,0,0.3754308420011512,93.48908214,None,93.88877635800054,None,93.88877635800054,None,d,0.22383066300062637,93.88877635800054,None,94.13939992199994,None,,,,,sub-02,26/07/2002,2: Female,15/07/2023,002,1: right,2023_Jul_15_1250,[FINAL]_fmri_multiplication,2021.2.3,60.04192307195406
block5.xlsx,48.5,7.5,9.6,8 x 3,24,12,3 x 8 = 24,small-sized_high-interference,small-sized,high-interference,13,CorrectRESP,a,0,0,0,0,0,3,3,3,,,,,,,,,,,,,,,98.53852002299936,None,99.039069,None,101.0390922860006,None,101.78912742799912,None,102.04050451699914,None,102.04050451699914,None,d,0,0.3600248520015157,102.04050451699914,None,102.4219650899995,None,102.4219650899995,None,d,0.23457632999998168,102.4219650899995,None,102.68912744800036,None,,,,,sub-02,26/07/2002,2: Female,15/07/2023,002,1: right,2023_Jul_15_1250,[FINAL]_fmri_multiplication,2021.2.3,60.04192307195406
block5.xlsx,65.6,7.5,5.4,5 x 5,30,3,5 x 5 = 30,small-sized_low-interference,small-sized,low-interference,3,IncorrectRESP,d,0,0,0,0,0,4,4,4,,,,,,,,,,,,,,,112.28905780499917,None,112.79054238699973,None,114.80577097899913,None,115.55573587899926,None,115.80680254700019,None,115.80680254700019,None,a,0,0.4818112859993562,115.80680254700019,None,116.30547176000073,None,116.30547176000073,None,d,0.2471004159997392,116.30547176000073,None,116.57214859099986,None,,,,,sub-02,26/07/2002,2: Female,15/07/2023,002,1: right,2023_Jul_15_1250,[FINAL]_fmri_multiplication,2021.2.3,60.04192307195406
block5.xlsx,78.5,7.5,7.7,3 x 9,27,19,9 x 3 = 27,large-sized_high-interference,large-sized,high-interference,9,CorrectRESP,a,0,0,0,0,0,5,5,5,,,,,,,,,,,,,,,121.96944250100023,None,122.46445857199978,None,124.4728696860002,None,125.22281246000057,None,125.47299756400025,None,125.47299756400025,None,d,0,0.3515086839997821,125.47299756400025,None,125.85498882600041,None,125.85498882600041,None,d,0.20948901400151954,125.85498882600041,None,126.08960924799976,None,,,,,sub-02,26/07/2002,2: Female,15/07/2023,002,1: right,2023_Jul_15_1250,[FINAL]_fmri_multiplication,2021.2.3,60.04192307195406
block5.xlsx,93.7,7.5,3.5,2 x 8,18,5,8 x 2 = 18,small-sized_low-interference,small-sized,low-interference,7,IncorrectRESP,d,0,0,0,0,0,6,6,6,,,,,,,,,,,,,,,133.7886776710002,None,134.2891484970005,None,136.28920503299923,None,137.0391276,None,137.28872901499926,None,137.28872901499926,None,a,0,0.4878125770010229,137.28872901499926,None,137.8045429140002,None,137.8045429140002,None,d,0.19598885500090546,137.8045429140002,None,138.02200639500006,None,,,,,sub-02,26/07/2002,2: Female,15/07/2023,002,1: right,2023_Jul_15_1250,[FINAL]_fmri_multiplication,2021.2.3,60.04192307195406
block5.xlsx,104.7,7.5,6.4,7 x 7,49,18,7 x 7 = 49,large-sized_low-interference,large-sized,low-interference,7,CorrectRESP,a,0,0,0,0,0,7,7,7,,,,,,,,,,,,,,,141.52236590400025,None,142.02208765400064,None,144.03907506199903,None,144.7890895319997,None,145.03717343300013,None,145.03717343300013,None,d,0,0.5393687270006922,145.03717343300013,None,145.60567794300005,None,145.60567794300005,None,d,0.18692413800090435,145.60567794300005,None,145.8224647520001,None,,,,,sub-02,26/07/2002,2: Female,15/07/2023,002,1: right,2023_Jul_15_1250,[FINAL]_fmri_multiplication,2021.2.3,60.04192307195406
block5.xlsx,118.6,7.5,3.2,8 x 5,45,21,5 x 8 = 45,large-sized_high-interference,large-sized,high-interference,9,IncorrectRESP,d,0,0,0,0,0,8,8,8,,,,,,,,,,,,,,,152.2221412,None,152.72343190299944,None,154.72278662499957,None,155.4726399430001,None,155.7336189510006,None,155.7336189510006,None,a,0,0.5550613649993466,155.7336189510006,None,156.30519422199905,None,156.30519422199905,None,d,0.20733088099950692,156.30519422199905,None,156.5385339780005,None,,,,,sub-02,26/07/2002,2: Female,15/07/2023,002,1: right,2023_Jul_15_1250,[FINAL]_fmri_multiplication,2021.2.3,60.04192307195406
block5.xlsx,129.3,7.5,6.8,5 x 4,20,8,4 x 5 = 20,small-sized_high-interference,small-sized,high-interference,8,CorrectRESP,a,0,0,0,0,0,9,9,9,,,,,,,,,,,,,,,159.73965131099976,None,160.23830894099956,None,162.2395879529995,None,162.98945835199993,None,163.25351687699913,None,163.25351687699913,None,d,0,0.4109791850005422,163.25351687699913,None,163.68868625100004,None,163.68868625100004,None,d,0.21614745300030336,163.68868625100004,None,163.92216168800041,None,,,,,sub-02,26/07/2002,2: Female,15/07/2023,002,1: right,2023_Jul_15_1250,[FINAL]_fmri_multiplication,2021.2.3,60.04192307195406
block5.xlsx,143.6,7.5,5.5,6 x 5,30,14,5 x 6 = 30,large-sized_low-interference,large-sized,low-interference,6,CorrectRESP,a,0,0,0,0,0,10,10,10,,,,,,,,,,,,,,,170.72269133400005,None,171.22221374400033,None,173.22246648200053,None,173.9724642609999,None,174.22213864399964,None,174.22213864399964,None,d,0,0.4343659700007265,174.22213864399964,None,174.6878285900002,None,174.6878285900002,None,d,0.2168094469998323,174.6878285900002,None,174.92171199199947,None,,,,,sub-02,26/07/2002,2: Female,15/07/2023,002,1: right,2023_Jul_15_1250,[FINAL]_fmri_multiplication,2021.2.3,60.04192307195406
block5.xlsx,156.6,7.5,6,3 x 7,24,11,7 x 3 = 24,small-sized_high-interference,small-sized,high-interference,13,IncorrectRESP,d,0,0,0,0,0,11,11,11,,,,,,,,,,,,,,,180.4224231549997,None,180.92202782099957,None,182.92242102099954,None,183.67234744300004,None,183.92186491100074,None,183.92186491100074,None,a,0,0.40686085100060154,183.92186491100074,None,184.3549102800007,None,184.3549102800007,None,d,0.18973191300028702,184.3549102800007,None,184.5724362380006,None,,,,,sub-02,26/07/2002,2: Female,15/07/2023,002,1: right,2023_Jul_15_1250,[FINAL]_fmri_multiplication,2021.2.3,60.04192307195406
block5.xlsx,170.1,7.5,7.1,5 x 7,40,17,7 x 5 = 40,large-sized_low-interference,large-sized,low-interference,7,IncorrectRESP,d,0,0,0,0,0,12,12,12,,,,,,,,,,,,,,,190.57278000800034,None,191.07311268400008,None,193.07298558000002,None,193.8229262599998,None,194.07323262699902,None,194.07323262699902,None,a,0,0.4314113809996343,194.07323262699902,None,194.5226015999997,None,194.5226015999997,None,d,0.20601223500125343,194.5226015999997,None,194.75628705000054,None,,,,,sub-02,26/07/2002,2: Female,15/07/2023,002,1: right,2023_Jul_15_1250,[FINAL]_fmri_multiplication,2021.2.3,60.04192307195406
block5.xlsx,184.7,7.5,5.3,4 x 6,28,10,6 x 4 = 28,small-sized_high-interference,small-sized,high-interference,12,IncorrectRESP,d,0,0,0,0,0,13,13,13,,,,,,,,,,,,,,,201.85590602899902,None,202.3555052339998,None,204.35546801099918,None,205.10597125099957,None,205.35569581900018,None,205.35569581900018,None,a,0,0.4049251739997999,205.35569581900018,None,205.78908054800013,None,205.78908054800013,None,d,0.195418202,205.78908054800013,None,206.00526644300044,None,,,,,sub-02,26/07/2002,2: Female,15/07/2023,002,1: right,2023_Jul_15_1250,[FINAL]_fmri_multiplication,2021.2.3,60.04192307195406
block5.xlsx,197.5,7.5,4.2,2 x 7,14,1,7 x 2 = 14,small-sized_low-interference,small-sized,low-interference,4,CorrectRESP,a,0,0,0,0,0,14,14,14,,,,,,,,,,,,,,,211.30571369999961,None,211.80594780799947,None,213.8057519720005,None,214.55570205799995,None,214.80556235499898,None,214.80556235499898,None,d,0,0.3710743569990882,214.80556235499898,None,215.20449202000054,None,215.20449202000054,None,d,0.17205136399934418,215.20449202000054,None,215.40529968199917,None,,,,,sub-02,26/07/2002,2: Female,15/07/2023,002,1: right,2023_Jul_15_1250,[FINAL]_fmri_multiplication,2021.2.3,60.04192307195406
block5.xlsx,209.2,7.5,7.2,9 x 4,36,20,4 x 9 = 36,large-sized_high-interference,large-sized,high-interference,9,CorrectRESP,a,0,0,0,0,0,15,15,15,,,,,,,,,,,,,,,219.60538234900014,None,220.10665829900063,None,222.10594775699974,None,222.85609597700022,None,223.10585243099922,None,223.10585243099922,None,d,0,0.38283955000042624,223.10585243099922,None,223.50455912100006,None,223.50455912100006,None,d,0.18401181700028246,223.50455912100006,None,223.70570287699957,None,,,,,sub-02,26/07/2002,2: Female,15/07/2023,002,1: right,2023_Jul_15_1250,[FINAL]_fmri_multiplication,2021.2.3,60.04192307195406
block5.xlsx,223.9,7.5,4.3,4 x 4,20,4,4 x 4 = 20,small-sized_low-interference,small-sized,low-interference,5,IncorrectRESP,d,0,0,0,0,0,16,16,16,,,,,,,,,,,,,,,230.90614119599923,None,231.40430855399973,None,233.40610695800024,None,234.15388891399925,None,234.40582729400012,None,234.40582729400012,None,a,0,0.4186821160001273,234.40582729400012,None,234.85610165300022,None,234.85610165300022,None,d,0.15240399699905538,234.85610165300022,None,235.03951760500058,None,,,,,sub-02,26/07/2002,2: Female,15/07/2023,002,1: right,2023_Jul_15_1250,[FINAL]_fmri_multiplication,2021.2.3,60.04192307195406
block5.xlsx,235.7,7.5,9.9,6 x 7,48,23,7 x 6 = 48,large-sized_high-interference,large-sized,high-interference,22,IncorrectRESP,d,0,0,0,0,0,17,17,17,,,,,,,,,,,,,,,239.3390321679999,None,239.83865879800032,None,241.83851181499995,None,242.5890393970003,None,242.83836945099938,None,242.83836945099938,None,a,0,0.42614940400017076,242.83836945099938,None,243.28872284200042,None,243.28872284200042,None,d,0.17577096200147935,243.28872284200042,None,243.48908731499978,None,,,,,sub-02,26/07/2002,2: Female,15/07/2023,002,1: right,2023_Jul_15_1250,[FINAL]_fmri_multiplication,2021.2.3,60.04192307195406
block5.xlsx,253.1,7.5,3.1,9 x 2,18,2,2 x 9 = 18,small-sized_low-interference,small-sized,low-interference,7,CorrectRESP,a,0,0,0,0,0,18,18,18,,,,,,,,,,,,,,,253.40466599799947,None,253.9056270380006,None,255.90585139199902,None,256.6558323219997,None,256.9053089980007,None,256.9053089980007,None,d,0,0.37526635200083547,256.9053089980007,None,257.3053146399998,None,257.3053146399998,None,d,0.18330682899977546,257.3053146399998,None,257.50547224799993,None,,,,,sub-02,26/07/2002,2: Female,15/07/2023,002,1: right,2023_Jul_15_1250,[FINAL]_fmri_multiplication,2021.2.3,60.04192307195406
block5.xlsx,263.7,7.5,4.6,5 x 9,40,15,9 x 5 = 40,large-sized_low-interference,large-sized,low-interference,6,IncorrectRESP,d,0,0,0,0,0,19,19,19,,,,,,,,,,,,,,,260.60608459099967,None,261.1072596409995,None,263.1229862380005,None,263.8729719010007,None,264.12251664299947,None,264.12251664299947,None,a,0,0.5020093179991818,264.12251664299947,None,264.6561686370005,None,264.6561686370005,None,d,0.14437970200015116,264.6561686370005,None,264.8207592969993,None,,,,,sub-02,26/07/2002,2: Female,15/07/2023,002,1: right,2023_Jul_15_1250,[FINAL]_fmri_multiplication,2021.2.3,60.04192307195406
block5.xlsx,275.8,7.5,3.9,7 x 8,63,22,8 x 7 = 63,large-sized_high-interference,large-sized,high-interference,9,IncorrectRESP,d,0,0,0,0,0,20,20,20,,,,,,,,,,,,,,,269.42212003699933,None,269.92222906700044,None,271.9224633289996,None,272.67303655199976,None,272.92203573699953,None,272.92203573699953,None,a,0,0.4065162250008143,272.92203573699953,None,273.35577944599936,None,273.35577944599936,None,d,0.14885045500159322,273.35577944599936,None,273.5212581699998,None,,,,,sub-02,26/07/2002,2: Female,15/07/2023,002,1: right,2023_Jul_15_1250,[FINAL]_fmri_multiplication,2021.2.3,60.04192307195406
block5.xlsx,287.2,7.5,7.4,4 x 3,15,9,3 x 4 = 15,small-sized_high-interference,small-sized,high-interference,10,IncorrectRESP,d,0,0,0,0,0,21,21,21,,,,,,,,,,,,,,,277.4224620320001,None,277.92207439400045,None,279.9226209440003,None,280.6724037,None,280.92217862600046,None,280.92217862600046,None,a,0,0.5023529629997938,280.92217862600046,None,281.45572454399917,None,281.45572454399917,None,d,0.10487644900058513,281.45572454399917,None,281.5879693,None,,,,,sub-02,26/07/2002,2: Female,15/07/2023,002,1: right,2023_Jul_15_1250,[FINAL]_fmri_multiplication,2021.2.3,60.04192307195406
block5.xlsx,302.1,7.5,7.1,4 x 8,32,24,8 x 4 = 32,large-sized_high-interference,large-sized,high-interference,25,CorrectRESP,a,0,0,0,0,0,22,22,22,,,,,,,,,,,,,,,288.9886129860006,None,289.4875281379991,None,291.4891875880003,None,292.23924409999927,None,292.4892456580001,None,292.4892456580001,None,d,0,0.343270287,292.4892456580001,None,292.85550309300015,None,292.85550309300015,None,d,0.16899390800062974,292.85550309300015,None,293.0556483929995,None,,,,,sub-02,26/07/2002,2: Female,15/07/2023,002,1: right,2023_Jul_15_1250,[FINAL]_fmri_multiplication,2021.2.3,60.04192307195406
block5.xlsx,316.7,7.5,10.8,6 x 6,36,13,6 x 6 = 36,large-sized_low-interference,large-sized,low-interference,4,CorrectRESP,a,0,0,0,0,0,23,23,23,,,,,,,,,,,,,,,300.1534227049997,None,300.65483243000017,None,302.65625302899934,None,303.4061251940002,None,303.6562546490004,None,303.6562546490004,None,d,0,0.39226408699869353,303.6562546490004,None,304.0723854940006,None,304.0723854940006,None,d,0.20024059000024863,304.0723854940006,None,304.28929031199914,None,,,,,sub-02,26/07/2002,2: Female,15/07/2023,002,1: right,2023_Jul_15_1250,[FINAL]_fmri_multiplication,2021.2.3,60.04192307195406
block5.xlsx,,,,,,,,,,,,,,0,0,0,0,,,,,0,0,0,0,,,,,,,,,,,,,,,,,,,,,,,,,,,,,,,,,,,,,,315.09145834800074,None,315.09145834800074,None,sub-02,26/07/2002,2: Female,15/07/2023,002,1: right,2023_Jul_15_1250,[FINAL]_fmri_multiplication,2021.2.3,60.04192307195406
block5.xlsx,,,,,,,,,,,,,,0,0,0,0,,,,,1,0,1,0,,,,,,,,,,,,,,,,,,,,,,,,,,,,,,,,,,,,,,316.10761664799975,None,316.10761664799975,None,sub-02,26/07/2002,2: Female,15/07/2023,002,1: right,2023_Jul_15_1250,[FINAL]_fmri_multiplication,2021.2.3,60.04192307195406
block5.xlsx,,,,,,,,,,,,,,0,0,0,0,,,,,2,0,2,0,,,,,,,,,,,,,,,,,,,,,,,,,,,,,,,,,,,,,,317.1071937430006,None,317.1071937430006,None,sub-02,26/07/2002,2: Female,15/07/2023,002,1: right,2023_Jul_15_1250,[FINAL]_fmri_multiplication,2021.2.3,60.04192307195406
block5.xlsx,,,,,,,,,,,,,,0,0,0,0,,,,,3,0,3,0,,,,,,,,,,,,,,,,,,,,,,,,,,,,,,,,,,,,,,318.1069328520007,None,318.1069328520007,None,sub-02,26/07/2002,2: Female,15/07/2023,002,1: right,2023_Jul_15_1250,[FINAL]_fmri_multiplication,2021.2.3,60.04192307195406
block5.xlsx,,,,,,,,,,,,,,0,0,0,0,,,,,4,0,4,0,,,,,,,,,,,,,,,,,,,,,,,,,,,,,,,,,,,,,,319.1066523949994,None,319.1066523949994,None,sub-02,26/07/2002,2: Female,15/07/2023,002,1: right,2023_Jul_15_1250,[FINAL]_fmri_multiplication,2021.2.3,60.04192307195406
block5.xlsx,,,,,,,,,,,,,,0,0,0,0,,,,,5,0,5,0,,,,,,,,,,,,,,,,,,,,,,,,,,,,,,,,,,,,,,320.1068987639992,None,320.1068987639992,None,sub-02,26/07/2002,2: Female,15/07/2023,002,1: right,2023_Jul_15_1250,[FINAL]_fmri_multiplication,2021.2.3,60.04192307195406
block5.xlsx,,,,,,,,,,,,,,0,0,0,0,,,,,6,0,6,0,,,,,,,,,,,,,,,,,,,,,,,,,,,,,,,,,,,,,,321.10676963399965,None,321.10676963399965,None,sub-02,26/07/2002,2: Female,15/07/2023,002,1: right,2023_Jul_15_1250,[FINAL]_fmri_multiplication,2021.2.3,60.04192307195406
block5.xlsx,,,,,,,,,,,,,,0,0,0,0,,,,,7,0,7,0,,,,,,,,,,,,,,,,,,,,,,,,,,,,,,,,,,,,,,322.10591165000005,None,322.10591165000005,None,sub-02,26/07/2002,2: Female,15/07/2023,002,1: right,2023_Jul_15_1250,[FINAL]_fmri_multiplication,2021.2.3,60.04192307195406
block5.xlsx,,,,,,,,,,,,,,0,0,0,0,,,,,8,0,8,0,,,,,,,,,,,,,,,,,,,,,,,,,,,,,,,,,,,,,,323.10656197500066,None,323.10656197500066,None,sub-02,26/07/2002,2: Female,15/07/2023,002,1: right,2023_Jul_15_1250,[FINAL]_fmri_multiplication,2021.2.3,60.04192307195406
block5.xlsx,,,,,,,,,,,,,,0,0,0,0,,,,,9,0,9,0,,,,,,,,,,,,,,,,,,,,,,,,,,,,,,,,,,,,,,324.1074033629993,None,324.1074033629993,None,sub-02,26/07/2002,2: Female,15/07/2023,002,1: right,2023_Jul_15_1250,[FINAL]_fmri_multiplication,2021.2.3,60.04192307195406
block5.xlsx,,,,,,,,,,,,,,0,0,0,0,,,,,10,0,10,0,,,,,,,,,,,,,,,,,,,,,,,,,,,,,,,,,,,,,,325.1074962,None,325.1074962,None,sub-02,26/07/2002,2: Female,15/07/2023,002,1: right,2023_Jul_15_1250,[FINAL]_fmri_multiplication,2021.2.3,60.04192307195406
block5.xlsx,,,,,,,,,,,,,,0,0,0,0,,,,,11,0,11,0,,,,,,,,,,,,,,,,,,,,,,,,,,,,,,,,,,,,,,326.1067870930001,None,326.1067870930001,None,sub-02,26/07/2002,2: Female,15/07/2023,002,1: right,2023_Jul_15_1250,[FINAL]_fmri_multiplication,2021.2.3,60.04192307195406
block5.xlsx,,,,,,,,,,,,,,0,0,0,0,,,,,12,0,12,0,,,,,,,,,,,,,,,,,,,,,,,,,,,,,,,,,,,,,,327.1084508490003,None,327.1084508490003,None,sub-02,26/07/2002,2: Female,15/07/2023,002,1: right,2023_Jul_15_1250,[FINAL]_fmri_multiplication,2021.2.3,60.04192307195406
block5.xlsx,,,,,,,,,,,,,,0,0,0,0,,,,,13,0,13,0,,,,,,,,,,,,,,,,,,,,,,,,,,,,,,,,,,,,,,328.10700450699915,None,328.10700450699915,None,sub-02,26/07/2002,2: Female,15/07/2023,002,1: right,2023_Jul_15_1250,[FINAL]_fmri_multiplication,2021.2.3,60.04192307195406
block5.xlsx,,,,,,,,,,,,,,0,0,0,0,,,,,14,0,14,0,,,,,,,,,,,,,,,,,,,,,,,,,,,,,,,,,,,,,,329.1058320209995,None,329.1058320209995,None,sub-02,26/07/2002,2: Female,15/07/2023,002,1: right,2023_Jul_15_1250,[FINAL]_fmri_multiplication,2021.2.3,60.04192307195406
block5.xlsx,,,,,,,,,,,,,,0,0,0,0,,,,,15,0,15,0,,,,,,,,,,,,,,,,,,,,,,,,,,,,,,,,,,,,,,330.1058377570007,None,330.1058377570007,None,sub-02,26/07/2002,2: Female,15/07/2023,002,1: right,2023_Jul_15_1250,[FINAL]_fmri_multiplication,2021.2.3,60.04192307195406
block5.xlsx,,,,,,,,,,,,,,0,0,0,0,,,,,16,0,16,0,,,,,,,,,,,,,,,,,,,,,,,,,,,,,,,,,,,,,,331.10877267700016,None,331.10877267700016,None,sub-02,26/07/2002,2: Female,15/07/2023,002,1: right,2023_Jul_15_1250,[FINAL]_fmri_multiplication,2021.2.3,60.04192307195406
block5.xlsx,,,,,,,,,,,,,,0,0,0,0,,,,,17,0,17,0,,,,,,,,,,,,,,,,,,,,,,,,,,,,,,,,,,,,,,332.1075680009999,None,332.1075680009999,None,sub-02,26/07/2002,2: Female,15/07/2023,002,1: right,2023_Jul_15_1250,[FINAL]_fmri_multiplication,2021.2.3,60.04192307195406
block5.xlsx,,,,,,,,,,,,,,0,0,0,0,,,,,18,0,18,0,,,,,,,,,,,,,,,,,,,,,,,,,,,,,,,,,,,,,,333.10633061099907,None,333.10633061099907,None,sub-02,26/07/2002,2: Female,15/07/2023,002,1: right,2023_Jul_15_1250,[FINAL]_fmri_multiplication,2021.2.3,60.04192307195406
block5.xlsx,,,,,,,,,,,,,,0,0,0,0,,,,,19,0,19,0,,,,,,,,,,,,,,,,,,,,,,,,,,,,,,,,,,,,,,334.10549022899977,None,334.10549022899977,None,sub-02,26/07/2002,2: Female,15/07/2023,002,1: right,2023_Jul_15_1250,[FINAL]_fmri_multiplication,2021.2.3,60.04192307195406
block5.xlsx,,,,,,,,,,,,,,0,0,0,0,,,,,20,0,20,0,,,,,,,,,,,,,,,,,,,,,,,,,,,,,,,,,,,,,,335.1057283,None,335.1057283,None,sub-02,26/07/2002,2: Female,15/07/2023,002,1: right,2023_Jul_15_1250,[FINAL]_fmri_multiplication,2021.2.3,60.04192307195406
block5.xlsx,,,,,,,,,,,,,,0,0,0,0,,,,,21,0,21,0,,,,,,,,,,,,,,,,,,,,,,,,,,,,,,,,,,,,,,336.1075179489999,None,336.1075179489999,None,sub-02,26/07/2002,2: Female,15/07/2023,002,1: right,2023_Jul_15_1250,[FINAL]_fmri_multiplication,2021.2.3,60.04192307195406
block5.xlsx,,,,,,,,,,,,,,0,0,0,0,,,,,22,0,22,0,,,,,,,,,,,,,,,,,,,,,,,,,,,,,,,,,,,,,,337.1065997499991,None,337.1065997499991,None,sub-02,26/07/2002,2: Female,15/07/2023,002,1: right,2023_Jul_15_1250,[FINAL]_fmri_multiplication,2021.2.3,60.04192307195406
block5.xlsx,,,,,,,,,,,,,,0,0,0,0,,,,,23,0,23,0,,,,,,,,,,,,,,,,,,,,,,,,,,,,,,,,,,,,,,338.10521473299923,None,338.10521473299923,None,sub-02,26/07/2002,2: Female,15/07/2023,002,1: right,2023_Jul_15_1250,[FINAL]_fmri_multiplication,2021.2.3,60.04192307195406
block5.xlsx,,,,,,,,,,,,,,0,0,0,0,,,,,24,0,24,0,,,,,,,,,,,,,,,,,,,,,,,,,,,,,,,,,,,,,,339.1058427480002,None,339.1058427480002,None,sub-02,26/07/2002,2: Female,15/07/2023,002,1: right,2023_Jul_15_1250,[FINAL]_fmri_multiplication,2021.2.3,60.04192307195406
block5.xlsx,,,,,,,,,,,,,,0,0,0,0,,,,,25,0,25,0,,,,,,,,,,,,,,,,,,,,,,,,,,,,,,,,,,,,,,340.1056015239992,None,340.1056015239992,None,sub-02,26/07/2002,2: Female,15/07/2023,002,1: right,2023_Jul_15_1250,[FINAL]_fmri_multiplication,2021.2.3,60.04192307195406
block5.xlsx,,,,,,,,,,,,,,0,0,0,0,,,,,26,0,26,0,,,,,,,,,,,,,,,,,,,,,,,,,,,,,,,,,,,,,,341.10550552600034,None,341.10550552600034,None,sub-02,26/07/2002,2: Female,15/07/2023,002,1: right,2023_Jul_15_1250,[FINAL]_fmri_multiplication,2021.2.3,60.04192307195406
block5.xlsx,,,,,,,,,,,,,,0,0,0,0,,,,,27,0,27,0,,,,,,,,,,,,,,,,,,,,,,,,,,,,,,,,,,,,,,342.1056361709998,None,342.1056361709998,None,sub-02,26/07/2002,2: Female,15/07/2023,002,1: right,2023_Jul_15_1250,[FINAL]_fmri_multiplication,2021.2.3,60.04192307195406
block5.xlsx,,,,,,,,,,,,,,0,0,0,0,,,,,28,0,28,0,,,,,,,,,,,,,,,,,,,,,,,,,,,,,,,,,,,,,,343.1056741760003,None,343.1056741760003,None,sub-02,26/07/2002,2: Female,15/07/2023,002,1: right,2023_Jul_15_1250,[FINAL]_fmri_multiplication,2021.2.3,60.04192307195406
block5.xlsx,,,,,,,,,,,,,,0,0,0,0,,,,,29,0,29,0,,,,,,,,,,,,,,,,,,,,,,,,,,,,,,,,,,,,,,344.1055033880002,None,344.1055033880002,None,sub-02,26/07/2002,2: Female,15/07/2023,002,1: right,2023_Jul_15_1250,[FINAL]_fmri_multiplication,2021.2.3,60.04192307195406
block5.xlsx,,,,,,,,,,,,,,0,0,0,0,,,,,,,,,,,,,,,,,,,,,,,,,,,,,,,,,,,,,,,,,,,,,,,,,,sub-02,26/07/2002,2: Female,15/07/2023,002,1: right,2023_Jul_15_1250,[FINAL]_fmri_multiplication,2021.2.3,60.04192307195406
block6.xlsx,10,7.5,4.1,6 x 5,36,14,5 x 6 = 36,large-sized_low-interference,large-sized,low-interference,6,IncorrectRESP,d,0,1,1,1,0,0,0,0,,,,,,,,,,,,,345.10575148299904,None,355.1296331419999,None,355.60546324700044,None,357.60527671399905,None,358.35458846599977,None,358.60448728200026,None,358.60448728200026,None,a,0,0.4600057919997198,358.60448728200026,None,359.0886464,None,359.0886464,None,d,0.1598488340005133,359.0886464,None,359.2719688090001,None,,,,,sub-02,26/07/2002,2: Female,15/07/2023,002,1: right,2023_Jul_15_1250,[FINAL]_fmri_multiplication,2021.2.3,60.04192307195406
block6.xlsx,21.6,7.5,7.2,2 x 6,10,6,6 x 2 = 10,small-sized_low-interference,small-sized,low-interference,3,IncorrectRESP,d,0,1,1,1,0,1,1,1,,,,,,,,,,,,,,,363.37252315600017,None,363.87135910600045,None,365.8727028,None,366.62288272600017,None,366.8731611330004,None,366.8731611330004,None,a,0,0.4554621950010187,366.8731611330004,None,367.3560657880007,None,367.3560657880007,None,d,0.16454398299902095,367.3560657880007,None,367.53959327600023,None,,,,,sub-02,26/07/2002,2: Female,15/07/2023,002,1: right,2023_Jul_15_1250,[FINAL]_fmri_multiplication,2021.2.3,60.04192307195406
block6.xlsx,36.3,7.5,13.8,6 x 7,42,23,7 x 6 = 42,large-sized_high-interference,large-sized,high-interference,22,CorrectRESP,a,0,1,1,1,0,2,2,2,,,,,,,,,,,,,,,374.73919664300047,None,375.2387946679992,None,377.2391603670003,None,377.98891813299997,None,378.2386739419999,None,378.2386739419999,None,d,0,0.36983234800027276,378.2386739419999,None,378.6392116040006,None,378.6392116040006,None,d,0.18529360899992753,378.6392116040006,None,378.85605082800066,None,,,,,sub-02,26/07/2002,2: Female,15/07/2023,002,1: right,2023_Jul_15_1250,[FINAL]_fmri_multiplication,2021.2.3,60.04192307195406
block6.xlsx,57.6,7.5,3.7,3 x 7,21,11,7 x 3 = 21,small-sized_high-interference,small-sized,high-interference,13,CorrectRESP,a,0,1,1,1,0,3,3,3,,,,,,,,,,,,,,,392.65546713599906,None,393.1555155290007,None,395.15575544499916,None,395.90584137299993,None,396.1557133009992,None,396.1557133009992,None,d,0,0.4448001300006581,396.1557133009992,None,396.62201564099996,None,396.62201564099996,None,d,0.7146014199988713,396.62201564099996,None,397.3558286179996,None,,,,,sub-02,26/07/2002,2: Female,15/07/2023,002,1: right,2023_Jul_15_1250,[FINAL]_fmri_multiplication,2021.2.3,60.04192307195406
block6.xlsx,68.8,7.5,7.8,2 x 7,12,1,7 x 2 = 12,small-sized_low-interference,small-sized,low-interference,4,IncorrectRESP,d,0,1,1,1,0,4,4,4,,,,,,,,,,,,,,,401.0552504850002,None,401.5700864859991,None,403.55619154799933,None,404.3224436500004,None,404.5572838,None,404.5572838,None,a,0,0.4112329990002763,404.5572838,None,404.98906670199904,None,404.98906670199904,None,d,0.24346410799989826,404.98906670199904,None,405.25562764200004,None,,,,,sub-02,26/07/2002,2: Female,15/07/2023,002,1: right,2023_Jul_15_1250,[FINAL]_fmri_multiplication,2021.2.3,60.04192307195406
block6.xlsx,84.1,7.5,8.6,3 x 9,24,19,9 x 3 = 24,large-sized_high-interference,large-sized,high-interference,9,IncorrectRESP,d,0,1,1,1,0,5,5,5,,,,,,,,,,,,,,,413.0559266580003,None,413.5557463900004,None,415.5559248690006,None,416.30586345700067,None,416.5553937269997,None,416.5553937269997,None,a,0,0.5491874359995563,416.5553937269997,None,417.12201010900026,None,417.12201010900026,None,d,0.16668113000014273,417.12201010900026,None,417.30528532099925,None,,,,,sub-02,26/07/2002,2: Female,15/07/2023,002,1: right,2023_Jul_15_1250,[FINAL]_fmri_multiplication,2021.2.3,60.04192307195406
block6.xlsx,100.2,7.5,3.3,4 x 6,24,10,6 x 4 = 24,small-sized_high-interference,small-sized,high-interference,12,CorrectRESP,a,0,1,1,1,0,6,6,6,,,,,,,,,,,,,,,425.90535660599926,None,426.4062209,None,428.4043910119999,None,429.1556637249996,None,429.4052841880002,None,429.4052841880002,None,d,0,0.363293001,429.4052841880002,None,429.7886453350002,None,429.7886453350002,None,d,0.22795537700039858,429.7886453350002,None,430.03869956000017,None,,,,,sub-02,26/07/2002,2: Female,15/07/2023,002,1: right,2023_Jul_15_1250,[FINAL]_fmri_multiplication,2021.2.3,60.04192307195406
block6.xlsx,111,7.5,6.3,9 x 2,16,2,2 x 9 = 16,small-sized_low-interference,small-sized,low-interference,7,IncorrectRESP,d,0,1,1,1,0,7,7,7,,,,,,,,,,,,,,,433.33705955000005,None,433.83802502599974,None,435.83936058499967,None,436.58954992500003,None,436.8533537,None,436.8533537,None,a,0,0.49121862199899624,436.8533537,None,437.37292212099965,None,437.37292212099965,None,d,0.15569417600090674,437.37292212099965,None,437.55632469900047,None,,,,,sub-02,26/07/2002,2: Female,15/07/2023,002,1: right,2023_Jul_15_1250,[FINAL]_fmri_multiplication,2021.2.3,60.04192307195406
block6.xlsx,124.8,7.5,3.1,6 x 6,30,13,6 x 6 = 30,large-sized_low-interference,large-sized,low-interference,4,IncorrectRESP,d,0,1,1,1,0,8,8,8,,,,,,,,,,,,,,,443.8562701659994,None,444.3560161839996,None,446.35594010100067,None,447.12161054399985,None,447.3866867960005,None,447.3866867960005,None,a,0,0.4777927089999139,447.3866867960005,None,447.8890761069997,None,447.8890761069997,None,d,0.1915284739989147,447.8890761069997,None,448.1057338240007,None,,,,,sub-02,26/07/2002,2: Female,15/07/2023,002,1: right,2023_Jul_15_1250,[FINAL]_fmri_multiplication,2021.2.3,60.04192307195406
block6.xlsx,135.4,7.5,2.7,5 x 4,16,8,4 x 5 = 16,small-sized_high-interference,small-sized,high-interference,8,IncorrectRESP,d,0,1,1,1,0,9,9,9,,,,,,,,,,,,,,,451.2052829439999,None,451.70550173300035,None,453.7053850199991,None,454.4557734150003,None,454.7052463979999,None,454.7052463979999,None,a,0,0.3833961629989062,454.7052463979999,None,455.1057220399998,None,455.1057220399998,None,d,0.20688695299941173,455.1057220399998,None,455.3388671970006,None,,,,,sub-02,26/07/2002,2: Female,15/07/2023,002,1: right,2023_Jul_15_1250,[FINAL]_fmri_multiplication,2021.2.3,60.04192307195406
block6.xlsx,145.6,7.5,5.1,5 x 5,25,3,5 x 5 = 25,small-sized_low-interference,small-sized,low-interference,3,CorrectRESP,a,0,1,1,1,0,10,10,10,,,,,,,,,,,,,,,458.0392103390004,None,458.53848982599993,None,460.5388241950004,None,461.28916694500003,None,461.53745692399934,None,461.53745692399934,None,d,0,0.38316749400109984,461.53745692399934,None,461.93799762399976,None,461.93799762399976,None,d,0.214749988,461.93799762399976,None,462.1719687170007,None,,,,,sub-02,26/07/2002,2: Female,15/07/2023,002,1: right,2023_Jul_15_1250,[FINAL]_fmri_multiplication,2021.2.3,60.04192307195406
block6.xlsx,158.2,7.5,2.9,7 x 7,56,18,7 x 7 = 56,large-sized_low-interference,large-sized,low-interference,7,IncorrectRESP,d,0,1,1,1,0,11,11,11,,,,,,,,,,,,,,,467.27254485199956,None,467.77230141399923,None,469.7725109080002,None,470.5223806,None,470.7739070860007,None,470.7739070860007,None,a,0,0.43458921300043585,470.7739070860007,None,471.23927734599965,None,471.23927734599965,None,d,0.18523035399994114,471.23927734599965,None,471.4561767159994,None,,,,,sub-02,26/07/2002,2: Female,15/07/2023,002,1: right,2023_Jul_15_1250,[FINAL]_fmri_multiplication,2021.2.3,60.04192307195406
block6.xlsx,168.6,7.5,5.7,3 x 6,15,7,6 x 3 = 15,small-sized_high-interference,small-sized,high-interference,8,IncorrectRESP,d,0,1,1,1,0,12,12,12,,,,,,,,,,,,,,,474.3562634509999,None,474.8553574819998,None,476.85631098500016,None,477.60622614299973,None,477.8564247430004,None,477.8564247430004,None,a,0,0.42417798200040124,477.8564247430004,None,478.3055077739991,None,478.3055077739991,None,d,0.18312431999947876,478.3055077739991,None,478.5061719210007,None,,,,,sub-02,26/07/2002,2: Female,15/07/2023,002,1: right,2023_Jul_15_1250,[FINAL]_fmri_multiplication,2021.2.3,60.04192307195406
block6.xlsx,181.8,7.5,3,2 x 8,16,5,8 x 2 = 16,small-sized_low-interference,small-sized,low-interference,7,CorrectRESP,a,0,1,1,1,0,13,13,13,,,,,,,,,,,,,,,484.20507386700046,None,484.70537472700016,None,486.70587927999986,None,487.4559544299991,None,487.70534969000073,None,487.70534969000073,None,d,0,0.38328957300109323,487.70534969000073,None,488.10555702999955,None,488.10555702999955,None,d,0.20706356299888284,488.10555702999955,None,488.33854581000014,None,,,,,sub-02,26/07/2002,2: Female,15/07/2023,002,1: right,2023_Jul_15_1250,[FINAL]_fmri_multiplication,2021.2.3,60.04192307195406
block6.xlsx,192.3,7.5,5.9,5 x 9,45,15,9 x 5 = 45,large-sized_low-interference,large-sized,low-interference,6,CorrectRESP,a,0,1,1,1,0,14,14,14,,,,,,,,,,,,,,,491.33882561099927,None,491.83904276199974,None,493.83906337900044,None,494.5890772189996,None,494.8396266239997,None,494.8396266239997,None,d,0,0.4490146719999757,494.8396266239997,None,495.3056331459993,None,495.3056331459993,None,d,0.23097502900054678,495.3056331459993,None,495.55458035599986,None,,,,,sub-02,26/07/2002,2: Female,15/07/2023,002,1: right,2023_Jul_15_1250,[FINAL]_fmri_multiplication,2021.2.3,60.04192307195406
block6.xlsx,205.7,7.5,2.1,4 x 3,12,9,3 x 4 = 12,small-sized_high-interference,small-sized,high-interference,10,CorrectRESP,a,0,1,1,1,0,15,15,15,,,,,,,,,,,,,,,501.45491554900036,None,501.95502922299966,None,503.95593364100023,None,504.70573395999963,None,504.9722212510005,None,504.9722212510005,None,d,0,0.3324594370005798,504.9722212510005,None,505.3223966009991,None,505.3223966009991,None,d,0.2061573920000228,505.3223966009991,None,505.5557688810004,None,,,,,sub-02,26/07/2002,2: Female,15/07/2023,002,1: right,2023_Jul_15_1250,[FINAL]_fmri_multiplication,2021.2.3,60.04192307195406
block6.xlsx,215.3,7.5,9.9,7 x 8,56,22,8 x 7 = 56,large-sized_high-interference,large-sized,high-interference,9,CorrectRESP,a,0,1,1,1,0,16,16,16,,,,,,,,,,,,,,,507.65552101899993,None,508.1570626299999,None,510.1562998980007,None,510.92290852800033,None,511.17241110800023,None,511.17241110800023,None,d,0,0.46009027200125274,511.17241110800023,None,511.65573619799943,None,511.65573619799943,None,d,0.19279321800058824,511.65573619799943,None,511.8724163780007,None,,,,,sub-02,26/07/2002,2: Female,15/07/2023,002,1: right,2023_Jul_15_1250,[FINAL]_fmri_multiplication,2021.2.3,60.04192307195406
block6.xlsx,232.7,7.5,2.2,8 x 3,21,12,3 x 8 = 21,small-sized_high-interference,small-sized,high-interference,13,IncorrectRESP,d,0,1,1,1,0,17,17,17,,,,,,,,,,,,,,,521.7724343509999,None,522.2721370969994,None,524.2724629290005,None,525.0224120509993,None,525.2711815389994,None,525.2711815389994,None,a,0,0.4253383479990589,525.2711815389994,None,525.7221086720001,None,525.7221086720001,None,d,0.14240246299959836,525.7221086720001,None,525.8886893990002,None,,,,,sub-02,26/07/2002,2: Female,15/07/2023,002,1: right,2023_Jul_15_1250,[FINAL]_fmri_multiplication,2021.2.3,60.04192307195406
block6.xlsx,242.4,7.5,7.9,9 x 9,81,16,9 x 9 = 81,large-sized_low-interference,large-sized,low-interference,6,CorrectRESP,a,0,1,1,1,0,18,18,18,,,,,,,,,,,,,,,528.0891673009992,None,528.5890409179992,None,530.5891225800005,None,531.3390002479991,None,531.5888980870004,None,531.5888980870004,None,d,0,0.3396096579999721,531.5888980870004,None,531.9548632469996,None,531.9548632469996,None,d,0.17370368099909683,531.9548632469996,None,532.1558263579991,None,,,,,sub-02,26/07/2002,2: Female,15/07/2023,002,1: right,2023_Jul_15_1250,[FINAL]_fmri_multiplication,2021.2.3,60.04192307195406
block6.xlsx,257.8,7.5,8.3,9 x 4,32,20,4 x 9 = 32,large-sized_high-interference,large-sized,high-interference,9,IncorrectRESP,d,0,1,1,1,0,19,19,19,,,,,,,,,,,,,,,540.0548406409998,None,540.5557382370007,None,542.5549344350002,None,543.3022400089994,None,543.5485847540003,None,543.5485847540003,None,a,0,0.46003171499978635,543.5485847540003,None,544.0383707260007,None,544.0383707260007,None,d,0.17013600199970824,544.0383707260007,None,544.2395999649998,None,,,,,sub-02,26/07/2002,2: Female,15/07/2023,002,1: right,2023_Jul_15_1250,[FINAL]_fmri_multiplication,2021.2.3,60.04192307195406
block6.xlsx,273.6,7.5,12.1,5 x 7,35,17,7 x 5 = 35,large-sized_low-interference,large-sized,low-interference,7,CorrectRESP,a,0,1,1,1,0,20,20,20,,,,,,,,,,,,,,,552.5394171699991,None,553.0387086680003,None,555.0392014139998,None,555.7892239649991,None,556.0375265589992,None,556.0375265589992,None,d,0,0.3949549400003889,556.0375265589992,None,556.4553449180003,None,556.4553449180003,None,d,0.1851510659998894,556.4553449180003,None,556.6724059659991,None,,,,,sub-02,26/07/2002,2: Female,15/07/2023,002,1: right,2023_Jul_15_1250,[FINAL]_fmri_multiplication,2021.2.3,60.04192307195406
block6.xlsx,293.2,7.5,4.1,4 x 8,28,24,8 x 4 = 28,large-sized_high-interference,large-sized,high-interference,25,IncorrectRESP,d,0,1,1,1,0,21,21,21,,,,,,,,,,,,,,,568.7719883320005,None,569.2724585569995,None,571.2719647169997,None,572.0225803,None,572.2878890989996,None,572.2878890989996,None,a,0,0.4486857230003807,572.2878890989996,None,572.7553100839996,None,572.7553100839996,None,d,0.21318257300117693,572.7553100839996,None,572.9891387089992,None,,,,,sub-02,26/07/2002,2: Female,15/07/2023,002,1: right,2023_Jul_15_1250,[FINAL]_fmri_multiplication,2021.2.3,60.04192307195406
block6.xlsx,304.8,7.5,6.7,4 x 4,16,4,4 x 4 = 16,small-sized_low-interference,small-sized,low-interference,5,CorrectRESP,a,0,1,1,1,0,22,22,22,,,,,,,,,,,,,,,577.0892528160002,None,577.5883634,None,579.5895714510007,None,580.3551055179996,None,580.6061075679991,None,580.6061075679991,None,d,0,0.34650084500026423,580.6061075679991,None,580.9724742210001,None,580.9724742210001,None,d,0.2120752699993318,580.9724742210001,None,581.2057551559992,None,,,,,sub-02,26/07/2002,2: Female,15/07/2023,002,1: right,2023_Jul_15_1250,[FINAL]_fmri_multiplication,2021.2.3,60.04192307195406
block6.xlsx,319,7.5,8.5,8 x 5,40,21,5 x 8 = 40,large-sized_high-interference,large-sized,high-interference,9,CorrectRESP,a,0,1,1,1,0,23,23,23,,,,,,,,,,,,,,,587.9058632910001,None,588.4050741299998,None,590.4054944029995,None,591.1558466,None,591.4061936170001,None,591.4061936170001,None,d,0,0.402309259,591.4061936170001,None,591.8389228199994,None,591.8389228199994,None,d,0.20952805300112232,591.8389228199994,None,592.0725537,None,,,,,sub-02,26/07/2002,2: Female,15/07/2023,002,1: right,2023_Jul_15_1250,[FINAL]_fmri_multiplication,2021.2.3,60.04192307195406
block6.xlsx,,,,,,,,,,,,,,0,1,1,1,,,,,0,0,0,0,,,,,,,,,,,,,,,,,,,,,,,,,,,,,,,,,,,,,,600.590105,None,600.590105,None,sub-02,26/07/2002,2: Female,15/07/2023,002,1: right,2023_Jul_15_1250,[FINAL]_fmri_multiplication,2021.2.3,60.04192307195406
block6.xlsx,,,,,,,,,,,,,,0,1,1,1,,,,,1,0,1,0,,,,,,,,,,,,,,,,,,,,,,,,,,,,,,,,,,,,,,601.5895757920007,None,601.5895757920007,None,sub-02,26/07/2002,2: Female,15/07/2023,002,1: right,2023_Jul_15_1250,[FINAL]_fmri_multiplication,2021.2.3,60.04192307195406
block6.xlsx,,,,,,,,,,,,,,0,1,1,1,,,,,2,0,2,0,,,,,,,,,,,,,,,,,,,,,,,,,,,,,,,,,,,,,,602.5892751060001,602.5892751060001,602.5892751060001,602.5892751060001,sub-02,26/07/2002,2: Female,15/07/2023,002,1: right,2023_Jul_15_1250,[FINAL]_fmri_multiplication,2021.2.3,60.04192307195406
block6.xlsx,,,,,,,,,,,,,,0,1,1,1,,,,,3,0,3,0,,,,,,,,,,,,,,,,,,,,,,,,,,,,,,,,,,,,,,603.5895522459996,None,603.5895522459996,None,sub-02,26/07/2002,2: Female,15/07/2023,002,1: right,2023_Jul_15_1250,[FINAL]_fmri_multiplication,2021.2.3,60.04192307195406
block6.xlsx,,,,,,,,,,,,,,0,1,1,1,,,,,4,0,4,0,,,,,,,,,,,,,,,,,,,,,,,,,,,,,,,,,,,,,,604.5890001,604.5890001,604.5890001,604.5890001,sub-02,26/07/2002,2: Female,15/07/2023,002,1: right,2023_Jul_15_1250,[FINAL]_fmri_multiplication,2021.2.3,60.04192307195406
block6.xlsx,,,,,,,,,,,,,,0,1,1,1,,,,,5,0,5,0,,,,,,,,,,,,,,,,,,,,,,,,,,,,,,,,,,,,,,605.5902074109999,605.5902074109999,605.5902074109999,605.5902074109999,sub-02,26/07/2002,2: Female,15/07/2023,002,1: right,2023_Jul_15_1250,[FINAL]_fmri_multiplication,2021.2.3,60.04192307195406
block6.xlsx,,,,,,,,,,,,,,0,1,1,1,,,,,6,0,6,0,,,,,,,,,,,,,,,,,,,,,,,,,,,,,,,,,,,,,,606.5885687930004,None,606.5885687930004,None,sub-02,26/07/2002,2: Female,15/07/2023,002,1: right,2023_Jul_15_1250,[FINAL]_fmri_multiplication,2021.2.3,60.04192307195406
block6.xlsx,,,,,,,,,,,,,,0,1,1,1,,,,,7,0,7,0,,,,,,,,,,,,,,,,,,,,,,,,,,,,,,,,,,,,,,607.5897640830008,607.5897640830008,607.5897640830008,607.5897640830008,sub-02,26/07/2002,2: Female,15/07/2023,002,1: right,2023_Jul_15_1250,[FINAL]_fmri_multiplication,2021.2.3,60.04192307195406
block6.xlsx,,,,,,,,,,,,,,0,1,1,1,,,,,8,0,8,0,,,,,,,,,,,,,,,,,,,,,,,,,,,,,,,,,,,,,,608.6067081750007,None,608.6067081750007,None,sub-02,26/07/2002,2: Female,15/07/2023,002,1: right,2023_Jul_15_1250,[FINAL]_fmri_multiplication,2021.2.3,60.04192307195406
block6.xlsx,,,,,,,,,,,,,,0,1,1,1,,,,,9,0,9,0,,,,,,,,,,,,,,,,,,,,,,,,,,,,,,,,,,,,,,609.5907698110004,None,609.5907698110004,None,sub-02,26/07/2002,2: Female,15/07/2023,002,1: right,2023_Jul_15_1250,[FINAL]_fmri_multiplication,2021.2.3,60.04192307195406
block6.xlsx,,,,,,,,,,,,,,0,1,1,1,,,,,10,0,10,0,,,,,,,,,,,,,,,,,,,,,,,,,,,,,,,,,,,,,,610.5895552290003,None,610.5895552290003,None,sub-02,26/07/2002,2: Female,15/07/2023,002,1: right,2023_Jul_15_1250,[FINAL]_fmri_multiplication,2021.2.3,60.04192307195406
block6.xlsx,,,,,,,,,,,,,,0,1,1,1,,,,,11,0,11,0,,,,,,,,,,,,,,,,,,,,,,,,,,,,,,,,,,,,,,611.5906524750008,None,611.5906524750008,None,sub-02,26/07/2002,2: Female,15/07/2023,002,1: right,2023_Jul_15_1250,[FINAL]_fmri_multiplication,2021.2.3,60.04192307195406
block6.xlsx,,,,,,,,,,,,,,0,1,1,1,,,,,12,0,12,0,,,,,,,,,,,,,,,,,,,,,,,,,,,,,,,,,,,,,,612.5968341259995,None,612.5968341259995,None,sub-02,26/07/2002,2: Female,15/07/2023,002,1: right,2023_Jul_15_1250,[FINAL]_fmri_multiplication,2021.2.3,60.04192307195406
block6.xlsx,,,,,,,,,,,,,,0,1,1,1,,,,,13,0,13,0,,,,,,,,,,,,,,,,,,,,,,,,,,,,,,,,,,,,,,613.5918500730004,None,613.5918500730004,None,sub-02,26/07/2002,2: Female,15/07/2023,002,1: right,2023_Jul_15_1250,[FINAL]_fmri_multiplication,2021.2.3,60.04192307195406
block6.xlsx,,,,,,,,,,,,,,0,1,1,1,,,,,14,0,14,0,,,,,,,,,,,,,,,,,,,,,,,,,,,,,,,,,,,,,,614.5903991729992,None,614.5903991729992,None,sub-02,26/07/2002,2: Female,15/07/2023,002,1: right,2023_Jul_15_1250,[FINAL]_fmri_multiplication,2021.2.3,60.04192307195406
block6.xlsx,,,,,,,,,,,,,,0,1,1,1,,,,,15,0,15,0,,,,,,,,,,,,,,,,,,,,,,,,,,,,,,,,,,,,,,615.5902686650006,None,615.5902686650006,None,sub-02,26/07/2002,2: Female,15/07/2023,002,1: right,2023_Jul_15_1250,[FINAL]_fmri_multiplication,2021.2.3,60.04192307195406
block6.xlsx,,,,,,,,,,,,,,0,1,1,1,,,,,16,0,16,0,,,,,,,,,,,,,,,,,,,,,,,,,,,,,,,,,,,,,,616.5914848720004,None,616.5914848720004,None,sub-02,26/07/2002,2: Female,15/07/2023,002,1: right,2023_Jul_15_1250,[FINAL]_fmri_multiplication,2021.2.3,60.04192307195406
block6.xlsx,,,,,,,,,,,,,,0,1,1,1,,,,,17,0,17,0,,,,,,,,,,,,,,,,,,,,,,,,,,,,,,,,,,,,,,617.5895311679997,None,617.5895311679997,None,sub-02,26/07/2002,2: Female,15/07/2023,002,1: right,2023_Jul_15_1250,[FINAL]_fmri_multiplication,2021.2.3,60.04192307195406
block6.xlsx,,,,,,,,,,,,,,0,1,1,1,,,,,18,0,18,0,,,,,,,,,,,,,,,,,,,,,,,,,,,,,,,,,,,,,,618.5904068,None,618.5904068,None,sub-02,26/07/2002,2: Female,15/07/2023,002,1: right,2023_Jul_15_1250,[FINAL]_fmri_multiplication,2021.2.3,60.04192307195406
block6.xlsx,,,,,,,,,,,,,,0,1,1,1,,,,,19,0,19,0,,,,,,,,,,,,,,,,,,,,,,,,,,,,,,,,,,,,,,619.5908380340006,None,619.5908380340006,None,sub-02,26/07/2002,2: Female,15/07/2023,002,1: right,2023_Jul_15_1250,[FINAL]_fmri_multiplication,2021.2.3,60.04192307195406
block6.xlsx,,,,,,,,,,,,,,0,1,1,1,,,,,20,0,20,0,,,,,,,,,,,,,,,,,,,,,,,,,,,,,,,,,,,,,,620.5892565,None,620.5892565,None,sub-02,26/07/2002,2: Female,15/07/2023,002,1: right,2023_Jul_15_1250,[FINAL]_fmri_multiplication,2021.2.3,60.04192307195406
block6.xlsx,,,,,,,,,,,,,,0,1,1,1,,,,,21,0,21,0,,,,,,,,,,,,,,,,,,,,,,,,,,,,,,,,,,,,,,621.5892249890003,None,621.5892249890003,None,sub-02,26/07/2002,2: Female,15/07/2023,002,1: right,2023_Jul_15_1250,[FINAL]_fmri_multiplication,2021.2.3,60.04192307195406
block6.xlsx,,,,,,,,,,,,,,0,1,1,1,,,,,22,0,22,0,,,,,,,,,,,,,,,,,,,,,,,,,,,,,,,,,,,,,,622.5891969029999,None,622.5891969029999,None,sub-02,26/07/2002,2: Female,15/07/2023,002,1: right,2023_Jul_15_1250,[FINAL]_fmri_multiplication,2021.2.3,60.04192307195406
block6.xlsx,,,,,,,,,,,,,,0,1,1,1,,,,,23,0,23,0,,,,,,,,,,,,,,,,,,,,,,,,,,,,,,,,,,,,,,623.5887899429999,None,623.5887899429999,None,sub-02,26/07/2002,2: Female,15/07/2023,002,1: right,2023_Jul_15_1250,[FINAL]_fmri_multiplication,2021.2.3,60.04192307195406
block6.xlsx,,,,,,,,,,,,,,0,1,1,1,,,,,24,0,24,0,,,,,,,,,,,,,,,,,,,,,,,,,,,,,,,,,,,,,,624.5878286669995,None,624.5878286669995,None,sub-02,26/07/2002,2: Female,15/07/2023,002,1: right,2023_Jul_15_1250,[FINAL]_fmri_multiplication,2021.2.3,60.04192307195406
block6.xlsx,,,,,,,,,,,,,,0,1,1,1,,,,,25,0,25,0,,,,,,,,,,,,,,,,,,,,,,,,,,,,,,,,,,,,,,625.5888858719991,None,625.5888858719991,None,sub-02,26/07/2002,2: Female,15/07/2023,002,1: right,2023_Jul_15_1250,[FINAL]_fmri_multiplication,2021.2.3,60.04192307195406
block6.xlsx,,,,,,,,,,,,,,0,1,1,1,,,,,26,0,26,0,,,,,,,,,,,,,,,,,,,,,,,,,,,,,,,,,,,,,,626.5893242319999,None,626.5893242319999,None,sub-02,26/07/2002,2: Female,15/07/2023,002,1: right,2023_Jul_15_1250,[FINAL]_fmri_multiplication,2021.2.3,60.04192307195406
block6.xlsx,,,,,,,,,,,,,,0,1,1,1,,,,,27,0,27,0,,,,,,,,,,,,,,,,,,,,,,,,,,,,,,,,,,,,,,627.5891256390005,None,627.5891256390005,None,sub-02,26/07/2002,2: Female,15/07/2023,002,1: right,2023_Jul_15_1250,[FINAL]_fmri_multiplication,2021.2.3,60.04192307195406
block6.xlsx,,,,,,,,,,,,,,0,1,1,1,,,,,28,0,28,0,,,,,,,,,,,,,,,,,,,,,,,,,,,,,,,,,,,,,,628.5877441409993,None,628.5877441409993,None,sub-02,26/07/2002,2: Female,15/07/2023,002,1: right,2023_Jul_15_1250,[FINAL]_fmri_multiplication,2021.2.3,60.04192307195406
block6.xlsx,,,,,,,,,,,,,,0,1,1,1,,,,,29,0,29,0,,,,,,,,,,,,,,,,,,,,,,,,,,,,,,,,,,,,,,629.5890043,None,629.5890043,None,sub-02,26/07/2002,2: Female,15/07/2023,002,1: right,2023_Jul_15_1250,[FINAL]_fmri_multiplication,2021.2.3,60.04192307195406
block6.xlsx,,,,,,,,,,,,,,0,1,1,1,,,,,,,,,,,,,,,,,,,,,,,,,,,,,,,,,,,,,,,,,,,,,,,,,,sub-02,26/07/2002,2: Female,15/07/2023,002,1: right,2023_Jul_15_1250,[FINAL]_fmri_multiplication,2021.2.3,60.04192307195406
block7.xlsx,10,7.5,4,2 x 7,14,1,7 x 2 = 14,small-sized_low-interference,small-sized,low-interference,4,CorrectRESP,a,0,2,2,2,0,0,0,0,,,,,,,,,,,,,630.5898399,None,640.6294170330002,None,641.0890218,None,643.0891413459995,None,643.8392350880004,None,644.0892364749998,None,644.0892364749998,None,d,0,0.591283542,644.0892364749998,None,644.7053475720004,None,644.7053475720004,None,d,0.1751408359996276,644.7053475720004,None,644.9050052839993,None,,,,,sub-02,26/07/2002,2: Female,15/07/2023,002,1: right,2023_Jul_15_1250,[FINAL]_fmri_multiplication,2021.2.3,60.04192307195406
block7.xlsx,21.5,7.5,14.2,3 x 6,15,7,6 x 3 = 15,small-sized_high-interference,small-sized,high-interference,8,IncorrectRESP,d,0,2,2,2,0,1,1,1,,,,,,,,,,,,,,,648.9060526,None,649.4051946349991,None,651.4062907690004,None,652.1562352189994,None,652.4052854109996,None,652.4052854109996,None,a,0,0.4432124920003844,652.4052854109996,None,652.8724469789995,None,652.8724469789995,None,d,0.232114589,652.8724469789995,None,653.1224583,None,,,,,sub-02,26/07/2002,2: Female,15/07/2023,002,1: right,2023_Jul_15_1250,[FINAL]_fmri_multiplication,2021.2.3,60.04192307195406
block7.xlsx,43.2,7.5,5.1,2 x 7,12,1,7 x 2 = 12,small-sized_low-interference,small-sized,low-interference,4,IncorrectRESP,d,0,2,2,2,0,2,2,2,,,,,,,,,,,,,,,667.3223944399997,None,667.8227331300004,None,669.8224744,None,670.5720113749994,None,670.8228864649991,None,670.8228864649991,None,a,0,0.40161053399970115,670.8228864649991,None,671.2555142399997,None,671.2555142399997,None,d,0.1689950489999319,671.2555142399997,None,671.4559026,None,,,,,sub-02,26/07/2002,2: Female,15/07/2023,002,1: right,2023_Jul_15_1250,[FINAL]_fmri_multiplication,2021.2.3,60.04192307195406
block7.xlsx,55.8,7.5,3.4,5 x 9,40,15,9 x 5 = 40,large-sized_low-interference,large-sized,low-interference,6,IncorrectRESP,d,0,2,2,2,0,3,3,3,,,,,,,,,,,,,,,676.5555831450001,None,677.0551850899992,None,679.0559927169998,None,679.8058898159998,None,680.0542799689993,None,680.0542799689993,None,a,0,0.4583167990003858,680.0542799689993,None,680.5386894469993,None,680.5386894469993,None,d,0.1818764800009376,680.5386894469993,None,680.7387030110003,None,,,,,sub-02,26/07/2002,2: Female,15/07/2023,002,1: right,2023_Jul_15_1250,[FINAL]_fmri_multiplication,2021.2.3,60.04192307195406
block7.xlsx,66.7,7.5,2.9,5 x 5,30,3,5 x 5 = 30,small-sized_low-interference,small-sized,low-interference,3,IncorrectRESP,d,0,2,2,2,0,4,4,4,,,,,,,,,,,,,,,684.1522610510001,None,684.6581212950005,None,686.6561991580002,None,687.4061981659997,None,687.6571001039993,None,687.6571001039993,None,a,0,0.46349219900002936,687.6571001039993,None,688.1389763,None,688.1389763,None,d,0.18961190700065345,688.1389763,None,688.3559121960006,None,,,,,sub-02,26/07/2002,2: Female,15/07/2023,002,1: right,2023_Jul_15_1250,[FINAL]_fmri_multiplication,2021.2.3,60.04192307195406
block7.xlsx,77.1,7.5,13.9,5 x 7,40,17,7 x 5 = 40,large-sized_low-interference,large-sized,low-interference,7,IncorrectRESP,d,0,2,2,2,0,5,5,5,,,,,,,,,,,,,,,691.2563606580006,None,691.7558659330007,None,693.7558973,None,694.5052578,None,694.7548837470003,None,694.7548837470003,None,a,0,0.43750621900107944,694.7548837470003,None,695.2223610830006,None,695.2223610830006,None,d,0.16214773500178126,695.2223610830006,None,695.4053915130007,None,,,,,sub-02,26/07/2002,2: Female,15/07/2023,002,1: right,2023_Jul_15_1250,[FINAL]_fmri_multiplication,2021.2.3,60.04192307195406
block7.xlsx,98.5,7.5,2.6,2 x 8,16,5,8 x 2 = 16,small-sized_low-interference,small-sized,low-interference,7,CorrectRESP,a,0,2,2,2,0,6,6,6,,,,,,,,,,,,,,,709.3054731,None,709.8058860740002,None,711.8053680009998,None,712.5557012959998,None,712.8058216030004,None,712.8058216030004,None,d,0,0.3946774109990656,712.8058216030004,None,713.2220445660005,None,713.2220445660005,None,d,0.2344764670015138,713.2220445660005,None,713.4891250159999,None,,,,,sub-02,26/07/2002,2: Female,15/07/2023,002,1: right,2023_Jul_15_1250,[FINAL]_fmri_multiplication,2021.2.3,60.04192307195406
block7.xlsx,108.6,7.5,11.6,3 x 6,18,7,6 x 3 = 18,small-sized_high-interference,small-sized,high-interference,8,CorrectRESP,a,0,2,2,2,0,7,7,7,,,,,,,,,,,,,,,716.0892598150003,None,716.5893573739995,None,718.5864121949999,None,719.3277065929997,None,719.5745295109991,None,719.5745295109991,None,d,0,0.4260366870003054,719.5745295109991,None,720.0224881,None,720.0224881,None,d,0.22601007199955347,720.0224881,None,720.2728415479996,None,,,,,sub-02,26/07/2002,2: Female,15/07/2023,002,1: right,2023_Jul_15_1250,[FINAL]_fmri_multiplication,2021.2.3,60.04192307195406
block7.xlsx,127.7,7.5,5,5 x 5,25,3,5 x 5 = 25,small-sized_low-interference,small-sized,low-interference,3,CorrectRESP,a,0,2,2,2,0,8,8,8,,,,,,,,,,,,,,,731.8724411139992,None,732.3719053929999,None,734.3716059,None,735.1223983540003,None,735.3724667810002,None,735.3724667810002,None,d,0,0.38813091100018937,735.3724667810002,None,735.7887414939996,None,735.7887414939996,None,d,0.17980787300075463,735.7887414939996,None,735.9885598670007,None,,,,,sub-02,26/07/2002,2: Female,15/07/2023,002,1: right,2023_Jul_15_1250,[FINAL]_fmri_multiplication,2021.2.3,60.04192307195406
block7.xlsx,140.2,7.5,2.8,6 x 6,36,13,6 x 6 = 36,large-sized_low-interference,large-sized,low-interference,4,CorrectRESP,a,0,2,2,2,0,9,9,9,,,,,,,,,,,,,,,740.9891516209991,None,741.4890827,None,743.4890090709996,None,744.2390040760001,None,744.4890355780008,None,744.4890355780008,None,d,0,0.33546779599964793,744.4890355780008,None,744.8560284489995,None,744.8560284489995,None,d,0.20045418699919537,744.8560284489995,None,745.0884717530007,None,,,,,sub-02,26/07/2002,2: Female,15/07/2023,002,1: right,2023_Jul_15_1250,[FINAL]_fmri_multiplication,2021.2.3,60.04192307195406
block7.xlsx,150.5,7.5,2,3 x 7,21,11,7 x 3 = 21,small-sized_high-interference,small-sized,high-interference,13,CorrectRESP,a,0,2,2,2,0,10,10,10,,,,,,,,,,,,,,,747.8892032259992,None,748.3889758459991,None,750.3888798999997,None,751.1390674550003,None,751.38855,None,751.38855,None,d,0,0.41992300099991553,751.38855,None,751.8393077820001,None,751.8393077820001,None,d,0.2252129270000296,751.8393077820001,None,752.0891084220002,None,,,,,sub-02,26/07/2002,2: Female,15/07/2023,002,1: right,2023_Jul_15_1250,[FINAL]_fmri_multiplication,2021.2.3,60.04192307195406
block7.xlsx,160,7.5,2.7,6 x 7,48,23,7 x 6 = 48,large-sized_high-interference,large-sized,high-interference,22,IncorrectRESP,d,0,2,2,2,0,11,11,11,,,,,,,,,,,,,,,754.0894703880003,None,754.5884932900008,None,756.5894717320007,None,757.3394503719992,None,757.5901225,None,757.5901225,None,a,0,0.4824840269993729,757.5901225,None,758.0895846189997,None,758.0895846189997,None,d,0.1910223600007157,758.0895846189997,None,758.3058229,None,,,,,sub-02,26/07/2002,2: Female,15/07/2023,002,1: right,2023_Jul_15_1250,[FINAL]_fmri_multiplication,2021.2.3,60.04192307195406
block7.xlsx,170.2,7.5,7,5 x 7,35,17,7 x 5 = 35,large-sized_low-interference,large-sized,low-interference,7,CorrectRESP,a,0,2,2,2,0,12,12,12,,,,,,,,,,,,,,,761.0058570849997,None,761.5057089099992,None,763.5058738850003,None,764.2558518999995,None,764.5054980719997,None,764.5054980719997,None,d,0,0.5350009050016524,764.5054980719997,None,765.0721728009994,None,765.0721728009994,None,d,0.1843359650010825,765.0721728009994,None,765.2890185380002,None,,,,,sub-02,26/07/2002,2: Female,15/07/2023,002,1: right,2023_Jul_15_1250,[FINAL]_fmri_multiplication,2021.2.3,60.04192307195406
block7.xlsx,184.7,7.5,3,3 x 9,27,19,9 x 3 = 27,large-sized_high-interference,large-sized,high-interference,9,CorrectRESP,a,0,2,2,2,0,13,13,13,,,,,,,,,,,,,,,772.2890663540002,None,772.7887690829994,None,774.7890763100004,None,775.5387639670007,None,775.7878509149996,None,775.7878509149996,None,d,0,0.33266968300085864,775.7878509149996,None,776.1386083500001,None,776.1386083500001,None,d,0.23803158500049904,776.1386083500001,None,776.4057937050002,None,,,,,sub-02,26/07/2002,2: Female,15/07/2023,002,1: right,2023_Jul_15_1250,[FINAL]_fmri_multiplication,2021.2.3,60.04192307195406
block7.xlsx,195.2,7.5,7.1,4 x 3,15,9,3 x 4 = 15,small-sized_high-interference,small-sized,high-interference,10,IncorrectRESP,d,0,2,2,2,0,14,14,14,,,,,,,,,,,,,,,779.4056665400003,None,779.9053609990005,None,781.9058135260002,None,782.6557525030003,None,782.9061177399999,None,782.9061177399999,None,d,1,0.2704453549995378,782.9061177399999,None,783.2052842619996,None,783.2052842619996,None,d,1.187213585999416,783.2052842619996,None,784.4224632490004,None,,,,,sub-02,26/07/2002,2: Female,15/07/2023,002,1: right,2023_Jul_15_1250,[FINAL]_fmri_multiplication,2021.2.3,60.04192307195406
block7.xlsx,209.8,7.5,3.9,2 x 8,18,5,8 x 2 = 18,small-sized_low-interference,small-sized,low-interference,7,IncorrectRESP,d,0,2,2,2,0,15,15,15,,,,,,,,,,,,,,,791.5225375,None,792.0228125560006,None,794.0229501979993,None,794.7729074279996,None,795.0227082860001,None,795.0227082860001,None,a,0,0.6738942220017634,795.0227082860001,None,795.7221202239998,None,795.7221202239998,None,d,0.2224465910003346,795.7221202239998,None,795.9712599609993,None,,,,,sub-02,26/07/2002,2: Female,15/07/2023,002,1: right,2023_Jul_15_1250,[FINAL]_fmri_multiplication,2021.2.3,60.04192307195406
block7.xlsx,221.2,7.5,13.2,8 x 5,40,21,5 x 8 = 40,large-sized_high-interference,large-sized,high-interference,9,CorrectRESP,a,0,2,2,2,0,16,16,16,,,,,,,,,,,,,,,799.8720984329993,None,800.3715612649994,None,802.3711049119993,None,803.1224787709998,None,803.3724174050003,None,803.3724174050003,None,d,0,0.6520172229993477,803.3724174050003,None,804.0555953,None,804.0555953,None,d,0.20091366899941931,804.0555953,None,804.2890979330004,None,,,,,sub-02,26/07/2002,2: Female,15/07/2023,002,1: right,2023_Jul_15_1250,[FINAL]_fmri_multiplication,2021.2.3,60.04192307195406
block7.xlsx,241.9,7.5,8.7,3 x 7,24,11,7 x 3 = 24,small-sized_high-interference,small-sized,high-interference,13,IncorrectRESP,d,0,2,2,2,0,17,17,17,,,,,,,,,,,,,,,817.4891049439993,None,817.9875038810005,None,819.9886948399999,None,820.7389160189996,None,820.9881264329997,None,820.9881264329997,None,a,0,0.5724543510004878,820.9881264329997,None,821.5906753630006,None,821.5906753630006,None,d,0.20990710699879855,821.5906753630006,None,821.8221775420006,None,,,,,sub-02,26/07/2002,2: Female,15/07/2023,002,1: right,2023_Jul_15_1250,[FINAL]_fmri_multiplication,2021.2.3,60.04192307195406
block7.xlsx,258.1,7.5,8.1,6 x 6,30,13,6 x 6 = 30,large-sized_low-interference,large-sized,low-interference,4,IncorrectRESP,d,0,2,2,2,0,18,18,18,,,,,,,,,,,,,,,830.5226199,None,831.0225253989993,None,833.0223766,None,833.7723808299997,None,834.0219825,None,834.0219825,None,a,0,0.4425336120002612,834.0219825,None,834.4887456380002,None,834.4887456380002,None,d,0.2158880520000821,834.4887456380002,None,834.7220290240002,None,,,,,sub-02,26/07/2002,2: Female,15/07/2023,002,1: right,2023_Jul_15_1250,[FINAL]_fmri_multiplication,2021.2.3,60.04192307195406
block7.xlsx,273.7,7.5,8.2,8 x 5,45,21,5 x 8 = 45,large-sized_high-interference,large-sized,high-interference,9,IncorrectRESP,d,0,2,2,2,0,19,19,19,,,,,,,,,,,,,,,842.8225692369997,None,843.3223486730003,None,845.3224676110003,None,846.0723901290003,None,846.3223898670003,None,846.3223898670003,None,a,0,0.4861144880014763,846.3223898670003,None,846.8388951630004,None,846.8388951630004,None,d,0.15360515100110206,846.8388951630004,None,847.0225044309991,None,,,,,sub-02,26/07/2002,2: Female,15/07/2023,002,1: right,2023_Jul_15_1250,[FINAL]_fmri_multiplication,2021.2.3,60.04192307195406
block7.xlsx,289.4,7.5,5.5,4 x 3,12,9,3 x 4 = 12,small-sized_high-interference,small-sized,high-interference,10,CorrectRESP,a,0,2,2,2,0,20,20,20,,,,,,,,,,,,,,,855.2226559579995,None,855.7221774200007,None,857.7227140899995,None,858.4738916,None,858.7286934519998,None,858.7286934519998,None,d,0,0.3678522080008406,858.7286934519998,None,859.1223764700007,None,859.1223764700007,None,d,0.17422937599985744,859.1223764700007,None,859.3225207020005,None,,,,,sub-02,26/07/2002,2: Female,15/07/2023,002,1: right,2023_Jul_15_1250,[FINAL]_fmri_multiplication,2021.2.3,60.04192307195406
block7.xlsx,302.4,7.5,4.8,3 x 9,24,19,9 x 3 = 24,large-sized_high-interference,large-sized,high-interference,9,IncorrectRESP,d,0,2,2,2,0,21,21,21,,,,,,,,,,,,,,,864.8228597489997,None,865.3224695839999,None,867.3224095610003,None,868.0725066619998,None,868.3220668409995,None,868.3220668409995,None,a,0,0.446521717,868.3220668409995,None,868.7886099799998,None,868.7886099799998,None,d,0.18801973699919472,868.7886099799998,None,869.0052121480003,None,,,,,sub-02,26/07/2002,2: Female,15/07/2023,002,1: right,2023_Jul_15_1250,[FINAL]_fmri_multiplication,2021.2.3,60.04192307195406
block7.xlsx,314.7,7.5,2.5,5 x 9,45,15,9 x 5 = 45,large-sized_low-interference,large-sized,low-interference,6,CorrectRESP,a,0,2,2,2,0,22,22,22,,,,,,,,,,,,,,,873.8057852040001,None,874.3053969209996,None,876.3060649660001,None,877.0558770240004,None,877.3052846690007,None,877.3052846690007,None,d,0,0.40731795499959844,877.3052846690007,None,877.7388381679993,None,877.7388381679993,None,d,0.1897612980010308,877.7388381679993,None,877.9556155200007,None,,,,,sub-02,26/07/2002,2: Female,15/07/2023,002,1: right,2023_Jul_15_1250,[FINAL]_fmri_multiplication,2021.2.3,60.04192307195406
block7.xlsx,324.7,7.5,2.8,6 x 7,42,23,7 x 6 = 42,large-sized_high-interference,large-sized,high-interference,22,CorrectRESP,a,0,2,2,2,0,23,23,23,,,,,,,,,,,,,,,880.4559132060003,None,880.9556214730001,None,882.9558012229991,None,883.7052447349997,None,883.9554396000003,None,883.9554396000003,None,d,0,0.3731584870001825,883.9554396000003,None,884.3553471569994,None,884.3553471569994,None,d,0.1892234200004168,884.3553471569994,None,884.5719880029992,None,,,,,sub-02,26/07/2002,2: Female,15/07/2023,002,1: right,2023_Jul_15_1250,[FINAL]_fmri_multiplication,2021.2.3,60.04192307195406
block7.xlsx,,,,,,,,,,,,,,0,2,2,2,,,,,0,0,0,0,,,,,,,,,,,,,,,,,,,,,,,,,,,,,,,,,,,,,,887.3730547230007,None,887.3730547230007,None,sub-02,26/07/2002,2: Female,15/07/2023,002,1: right,2023_Jul_15_1250,[FINAL]_fmri_multiplication,2021.2.3,60.04192307195406
block7.xlsx,,,,,,,,,,,,,,0,2,2,2,,,,,1,0,1,0,,,,,,,,,,,,,,,,,,,,,,,,,,,,,,,,,,,,,,888.3716141570003,888.3716141570003,888.3716141570003,888.3716141570003,sub-02,26/07/2002,2: Female,15/07/2023,002,1: right,2023_Jul_15_1250,[FINAL]_fmri_multiplication,2021.2.3,60.04192307195406
block7.xlsx,,,,,,,,,,,,,,0,2,2,2,,,,,2,0,2,0,,,,,,,,,,,,,,,,,,,,,,,,,,,,,,,,,,,,,,889.372977,889.372977,889.372977,889.372977,sub-02,26/07/2002,2: Female,15/07/2023,002,1: right,2023_Jul_15_1250,[FINAL]_fmri_multiplication,2021.2.3,60.04192307195406
block7.xlsx,,,,,,,,,,,,,,0,2,2,2,,,,,3,0,3,0,,,,,,,,,,,,,,,,,,,,,,,,,,,,,,,,,,,,,,890.3731407750001,890.3731407750001,890.3731407750001,890.3731407750001,sub-02,26/07/2002,2: Female,15/07/2023,002,1: right,2023_Jul_15_1250,[FINAL]_fmri_multiplication,2021.2.3,60.04192307195406
block7.xlsx,,,,,,,,,,,,,,0,2,2,2,,,,,4,0,4,0,,,,,,,,,,,,,,,,,,,,,,,,,,,,,,,,,,,,,,891.3723999819995,891.3723999819995,891.3723999819995,891.3723999819995,sub-02,26/07/2002,2: Female,15/07/2023,002,1: right,2023_Jul_15_1250,[FINAL]_fmri_multiplication,2021.2.3,60.04192307195406
block7.xlsx,,,,,,,,,,,,,,0,2,2,2,,,,,5,0,5,0,,,,,,,,,,,,,,,,,,,,,,,,,,,,,,,,,,,,,,892.3733234190004,892.3733234190004,892.3733234190004,892.3733234190004,sub-02,26/07/2002,2: Female,15/07/2023,002,1: right,2023_Jul_15_1250,[FINAL]_fmri_multiplication,2021.2.3,60.04192307195406
block7.xlsx,,,,,,,,,,,,,,0,2,2,2,,,,,6,0,6,0,,,,,,,,,,,,,,,,,,,,,,,,,,,,,,,,,,,,,,893.3738375489993,893.3738375489993,893.3738375489993,893.3738375489993,sub-02,26/07/2002,2: Female,15/07/2023,002,1: right,2023_Jul_15_1250,[FINAL]_fmri_multiplication,2021.2.3,60.04192307195406
block7.xlsx,,,,,,,,,,,,,,0,2,2,2,,,,,7,0,7,0,,,,,,,,,,,,,,,,,,,,,,,,,,,,,,,,,,,,,,894.3737970120001,894.3737970120001,894.3737970120001,894.3737970120001,sub-02,26/07/2002,2: Female,15/07/2023,002,1: right,2023_Jul_15_1250,[FINAL]_fmri_multiplication,2021.2.3,60.04192307195406
block7.xlsx,,,,,,,,,,,,,,0,2,2,2,,,,,8,0,8,0,,,,,,,,,,,,,,,,,,,,,,,,,,,,,,,,,,,,,,895.3889091729998,None,895.3889091729998,None,sub-02,26/07/2002,2: Female,15/07/2023,002,1: right,2023_Jul_15_1250,[FINAL]_fmri_multiplication,2021.2.3,60.04192307195406
block7.xlsx,,,,,,,,,,,,,,0,2,2,2,,,,,9,0,9,0,,,,,,,,,,,,,,,,,,,,,,,,,,,,,,,,,,,,,,896.3896521919996,None,896.3896521919996,None,sub-02,26/07/2002,2: Female,15/07/2023,002,1: right,2023_Jul_15_1250,[FINAL]_fmri_multiplication,2021.2.3,60.04192307195406
block7.xlsx,,,,,,,,,,,,,,0,2,2,2,,,,,10,0,10,0,,,,,,,,,,,,,,,,,,,,,,,,,,,,,,,,,,,,,,897.4036760260005,None,897.4036760260005,None,sub-02,26/07/2002,2: Female,15/07/2023,002,1: right,2023_Jul_15_1250,[FINAL]_fmri_multiplication,2021.2.3,60.04192307195406
block7.xlsx,,,,,,,,,,,,,,0,2,2,2,,,,,11,0,11,0,,,,,,,,,,,,,,,,,,,,,,,,,,,,,,,,,,,,,,898.39183,None,898.39183,None,sub-02,26/07/2002,2: Female,15/07/2023,002,1: right,2023_Jul_15_1250,[FINAL]_fmri_multiplication,2021.2.3,60.04192307195406
block7.xlsx,,,,,,,,,,,,,,0,2,2,2,,,,,12,0,12,0,,,,,,,,,,,,,,,,,,,,,,,,,,,,,,,,,,,,,,899.3908557840005,None,899.3908557840005,None,sub-02,26/07/2002,2: Female,15/07/2023,002,1: right,2023_Jul_15_1250,[FINAL]_fmri_multiplication,2021.2.3,60.04192307195406
block7.xlsx,,,,,,,,,,,,,,0,2,2,2,,,,,13,0,13,0,,,,,,,,,,,,,,,,,,,,,,,,,,,,,,,,,,,,,,900.3906305820001,None,900.3906305820001,None,sub-02,26/07/2002,2: Female,15/07/2023,002,1: right,2023_Jul_15_1250,[FINAL]_fmri_multiplication,2021.2.3,60.04192307195406
block7.xlsx,,,,,,,,,,,,,,0,2,2,2,,,,,14,0,14,0,,,,,,,,,,,,,,,,,,,,,,,,,,,,,,,,,,,,,,901.3896761039996,None,901.3896761039996,None,sub-02,26/07/2002,2: Female,15/07/2023,002,1: right,2023_Jul_15_1250,[FINAL]_fmri_multiplication,2021.2.3,60.04192307195406
block7.xlsx,,,,,,,,,,,,,,0,2,2,2,,,,,15,0,15,0,,,,,,,,,,,,,,,,,,,,,,,,,,,,,,,,,,,,,,902.3891543,None,902.3891543,None,sub-02,26/07/2002,2: Female,15/07/2023,002,1: right,2023_Jul_15_1250,[FINAL]_fmri_multiplication,2021.2.3,60.04192307195406
block7.xlsx,,,,,,,,,,,,,,0,2,2,2,,,,,16,0,16,0,,,,,,,,,,,,,,,,,,,,,,,,,,,,,,,,,,,,,,903.3890011179992,None,903.3890011179992,None,sub-02,26/07/2002,2: Female,15/07/2023,002,1: right,2023_Jul_15_1250,[FINAL]_fmri_multiplication,2021.2.3,60.04192307195406
block7.xlsx,,,,,,,,,,,,,,0,2,2,2,,,,,17,0,17,0,,,,,,,,,,,,,,,,,,,,,,,,,,,,,,,,,,,,,,904.3881139360001,None,904.3881139360001,None,sub-02,26/07/2002,2: Female,15/07/2023,002,1: right,2023_Jul_15_1250,[FINAL]_fmri_multiplication,2021.2.3,60.04192307195406
block7.xlsx,,,,,,,,,,,,,,0,2,2,2,,,,,18,0,18,0,,,,,,,,,,,,,,,,,,,,,,,,,,,,,,,,,,,,,,905.3897969280006,None,905.3897969280006,None,sub-02,26/07/2002,2: Female,15/07/2023,002,1: right,2023_Jul_15_1250,[FINAL]_fmri_multiplication,2021.2.3,60.04192307195406
block7.xlsx,,,,,,,,,,,,,,0,2,2,2,,,,,19,0,19,0,,,,,,,,,,,,,,,,,,,,,,,,,,,,,,,,,,,,,,906.3886733859999,None,906.3886733859999,None,sub-02,26/07/2002,2: Female,15/07/2023,002,1: right,2023_Jul_15_1250,[FINAL]_fmri_multiplication,2021.2.3,60.04192307195406
block7.xlsx,,,,,,,,,,,,,,0,2,2,2,,,,,20,0,20,0,,,,,,,,,,,,,,,,,,,,,,,,,,,,,,,,,,,,,,907.3883269319995,None,907.3883269319995,None,sub-02,26/07/2002,2: Female,15/07/2023,002,1: right,2023_Jul_15_1250,[FINAL]_fmri_multiplication,2021.2.3,60.04192307195406
block7.xlsx,,,,,,,,,,,,,,0,2,2,2,,,,,21,0,21,0,,,,,,,,,,,,,,,,,,,,,,,,,,,,,,,,,,,,,,908.3892035650006,None,908.3892035650006,None,sub-02,26/07/2002,2: Female,15/07/2023,002,1: right,2023_Jul_15_1250,[FINAL]_fmri_multiplication,2021.2.3,60.04192307195406
block7.xlsx,,,,,,,,,,,,,,0,2,2,2,,,,,22,0,22,0,,,,,,,,,,,,,,,,,,,,,,,,,,,,,,,,,,,,,,909.3889179750004,None,909.3889179750004,None,sub-02,26/07/2002,2: Female,15/07/2023,002,1: right,2023_Jul_15_1250,[FINAL]_fmri_multiplication,2021.2.3,60.04192307195406
block7.xlsx,,,,,,,,,,,,,,0,2,2,2,,,,,23,0,23,0,,,,,,,,,,,,,,,,,,,,,,,,,,,,,,,,,,,,,,910.4031159749993,None,910.4031159749993,None,sub-02,26/07/2002,2: Female,15/07/2023,002,1: right,2023_Jul_15_1250,[FINAL]_fmri_multiplication,2021.2.3,60.04192307195406
block7.xlsx,,,,,,,,,,,,,,0,2,2,2,,,,,24,0,24,0,,,,,,,,,,,,,,,,,,,,,,,,,,,,,,,,,,,,,,911.3889557010007,None,911.3889557010007,None,sub-02,26/07/2002,2: Female,15/07/2023,002,1: right,2023_Jul_15_1250,[FINAL]_fmri_multiplication,2021.2.3,60.04192307195406
block7.xlsx,,,,,,,,,,,,,,0,2,2,2,,,,,25,0,25,0,,,,,,,,,,,,,,,,,,,,,,,,,,,,,,,,,,,,,,912.3890118799991,None,912.3890118799991,None,sub-02,26/07/2002,2: Female,15/07/2023,002,1: right,2023_Jul_15_1250,[FINAL]_fmri_multiplication,2021.2.3,60.04192307195406
block7.xlsx,,,,,,,,,,,,,,0,2,2,2,,,,,26,0,26,0,,,,,,,,,,,,,,,,,,,,,,,,,,,,,,,,,,,,,,913.3890178029997,None,913.3890178029997,None,sub-02,26/07/2002,2: Female,15/07/2023,002,1: right,2023_Jul_15_1250,[FINAL]_fmri_multiplication,2021.2.3,60.04192307195406
block7.xlsx,,,,,,,,,,,,,,0,2,2,2,,,,,27,0,27,0,,,,,,,,,,,,,,,,,,,,,,,,,,,,,,,,,,,,,,914.3877670050006,None,914.3877670050006,None,sub-02,26/07/2002,2: Female,15/07/2023,002,1: right,2023_Jul_15_1250,[FINAL]_fmri_multiplication,2021.2.3,60.04192307195406
block7.xlsx,,,,,,,,,,,,,,0,2,2,2,,,,,28,0,28,0,,,,,,,,,,,,,,,,,,,,,,,,,,,,,,,,,,,,,,915.3885854050004,None,915.3885854050004,None,sub-02,26/07/2002,2: Female,15/07/2023,002,1: right,2023_Jul_15_1250,[FINAL]_fmri_multiplication,2021.2.3,60.04192307195406
block7.xlsx,,,,,,,,,,,,,,0,2,2,2,,,,,29,0,29,0,,,,,,,,,,,,,,,,,,,,,,,,,,,,,,,,,,,,,,916.3893786019999,None,916.3893786019999,None,sub-02,26/07/2002,2: Female,15/07/2023,002,1: right,2023_Jul_15_1250,[FINAL]_fmri_multiplication,2021.2.3,60.04192307195406
block7.xlsx,,,,,,,,,,,,,,0,2,2,2,,,,,,,,,,,,,,,,,,,,,,,,,,,,,,,,,,,,,,,,,,,,,,,,,,sub-02,26/07/2002,2: Female,15/07/2023,002,1: right,2023_Jul_15_1250,[FINAL]_fmri_multiplication,2021.2.3,60.04192307195406
block8.xlsx,10,7.5,4.2,9 x 9,81,16,9 x 9 = 81,large-sized_low-interference,large-sized,low-interference,6,CorrectRESP,a,0,3,3,3,0,0,0,0,,,,,,,,,,,,,917.3904950840006,None,927.4127113689992,None,927.8891324710003,None,929.8895223359996,None,930.6396598310002,None,930.8888925730007,None,930.8888925730007,None,d,0,0.39168271900052787,930.8888925730007,None,931.3055689,None,931.3055689,None,d,0.17504222200113873,931.3055689,None,931.5055427129992,None,,,,,sub-02,26/07/2002,2: Female,15/07/2023,002,1: right,2023_Jul_15_1250,[FINAL]_fmri_multiplication,2021.2.3,60.04192307195406
block8.xlsx,21.7,7.5,5.5,5 x 4,20,8,4 x 5 = 20,small-sized_high-interference,small-sized,high-interference,8,CorrectRESP,a,0,3,3,3,0,1,1,1,,,,,,,,,,,,,,,935.7059661490002,None,936.2047463050003,None,938.2059128599994,None,938.9558474229998,None,939.2053799400001,None,939.2053799400001,None,d,0,0.41912781600149174,939.2053799400001,None,939.6559282060007,None,939.6559282060007,None,d,0.19258069299939962,939.6559282060007,None,939.8724889999994,None,,,,,sub-02,26/07/2002,2: Female,15/07/2023,002,1: right,2023_Jul_15_1250,[FINAL]_fmri_multiplication,2021.2.3,60.04192307195406
block8.xlsx,34.7,7.5,13.5,9 x 4,32,20,4 x 9 = 32,large-sized_high-interference,large-sized,high-interference,9,IncorrectRESP,d,0,3,3,3,0,2,2,2,,,,,,,,,,,,,,,945.3720102,None,945.8733949020007,None,947.8724145140004,None,948.6225162770006,None,948.8729092070007,None,948.8729092070007,None,a,0,0.5195869279996259,948.8729092070007,None,949.4210919039997,None,949.4210919039997,None,d,0.1633498609990056,949.4210919039997,None,949.6052943489995,None,,,,,sub-02,26/07/2002,2: Female,15/07/2023,002,1: right,2023_Jul_15_1250,[FINAL]_fmri_multiplication,2021.2.3,60.04192307195406
block8.xlsx,55.7,7.5,3.1,4 x 6,24,10,6 x 4 = 24,small-sized_high-interference,small-sized,high-interference,12,CorrectRESP,a,0,3,3,3,0,3,3,3,,,,,,,,,,,,,,,963.1057627230002,None,963.6064392160006,None,965.6063175750005,None,966.3563589879996,None,966.6059448449996,None,966.6059448449996,None,d,0,0.4345539280002413,966.6059448449996,None,967.0728393720001,None,967.0728393720001,None,d,0.17566707200057863,967.0728393720001,None,967.2723756880005,None,,,,,sub-02,26/07/2002,2: Female,15/07/2023,002,1: right,2023_Jul_15_1250,[FINAL]_fmri_multiplication,2021.2.3,60.04192307195406
block8.xlsx,66.3,7.5,7.7,2 x 6,10,6,6 x 2 = 10,small-sized_low-interference,small-sized,low-interference,3,IncorrectRESP,d,0,3,3,3,0,4,4,4,,,,,,,,,,,,,,,970.3729344269996,None,970.8719154150003,None,972.8725801569999,None,973.6225803479992,None,973.8722580600006,None,973.8722580600006,None,a,0,0.6883190560001822,973.8722580600006,None,974.5885448,None,974.5885448,None,d,0.21198761599953286,974.5885448,None,974.8220357049995,None,,,,,sub-02,26/07/2002,2: Female,15/07/2023,002,1: right,2023_Jul_15_1250,[FINAL]_fmri_multiplication,2021.2.3,60.04192307195406
block8.xlsx,81.5,7.5,6.9,7 x 7,49,18,7 x 7 = 49,large-sized_low-interference,large-sized,low-interference,7,CorrectRESP,a,0,3,3,3,0,5,5,5,,,,,,,,,,,,,,,982.5225018,None,983.0221931809992,None,985.0217351470001,None,985.7722841680006,None,986.0225818199997,None,986.0225818199997,None,d,0,0.4259515360008663,986.0225818199997,None,986.4710818149997,None,986.4710818149997,None,d,0.20142074799878174,986.4710818149997,None,986.689014,None,,,,,sub-02,26/07/2002,2: Female,15/07/2023,002,1: right,2023_Jul_15_1250,[FINAL]_fmri_multiplication,2021.2.3,60.04192307195406
block8.xlsx,95.9,7.5,12.3,2 x 6,12,6,6 x 2 = 12,small-sized_low-interference,small-sized,low-interference,3,CorrectRESP,a,0,3,3,3,0,6,6,6,,,,,,,,,,,,,,,993.5891083850001,None,994.0891855730006,None,996.0889131660006,None,996.8393962970003,None,997.0893956,None,997.0893956,None,d,0,0.37509421200047655,997.0893956,None,997.4889289069997,None,997.4889289069997,None,d,0.17552993999925093,997.4889289069997,None,997.6894752629996,None,,,,,sub-02,26/07/2002,2: Female,15/07/2023,002,1: right,2023_Jul_15_1250,[FINAL]_fmri_multiplication,2021.2.3,60.04192307195406
block8.xlsx,115.7,7.5,2.7,7 x 8,63,22,8 x 7 = 63,large-sized_high-interference,large-sized,high-interference,9,IncorrectRESP,d,0,3,3,3,0,7,7,7,,,,,,,,,,,,,,,1009.9891743699991,None,1010.4876284149996,None,1012.4892096370004,None,1013.2394429230008,None,1013.4890653910006,None,1013.4890653910006,None,a,0,0.49550749999980326,1013.4890653910006,None,1014.0053139049996,None,1014.0053139049996,None,d,0.15525124700070592,1014.0053139049996,None,1014.188634,None,,,,,sub-02,26/07/2002,2: Female,15/07/2023,002,1: right,2023_Jul_15_1250,[FINAL]_fmri_multiplication,2021.2.3,60.04192307195406
block8.xlsx,125.9,7.5,7.8,9 x 2,16,2,2 x 9 = 16,small-sized_low-interference,small-sized,low-interference,7,IncorrectRESP,d,0,3,3,3,0,8,8,8,,,,,,,,,,,,,,,1016.8890786070006,None,1017.3887880469993,None,1019.3891418399999,None,1020.1388953690002,None,1020.3886450999998,None,1020.3886450999998,None,a,0,0.4919592719998036,1020.3886450999998,None,1020.9050885430006,None,1020.9050885430006,None,d,0.1434211249998043,1020.9050885430006,None,1021.0725902670001,None,,,,,sub-02,26/07/2002,2: Female,15/07/2023,002,1: right,2023_Jul_15_1250,[FINAL]_fmri_multiplication,2021.2.3,60.04192307195406
block8.xlsx,141.2,7.5,2.9,8 x 3,24,12,3 x 8 = 24,small-sized_high-interference,small-sized,high-interference,13,CorrectRESP,a,0,3,3,3,0,9,9,9,,,,,,,,,,,,,,,1028.8724059659999,None,1029.3724307939992,None,1031.3722759489992,None,1032.1223275819993,None,1032.3717116949992,None,1032.3717116949992,None,d,0,0.3649388240010012,1032.3717116949992,None,1032.7555470089992,None,1032.7555470089992,None,d,0.48497749799935264,1032.7555470089992,None,1033.2726311959996,None,,,,,sub-02,26/07/2002,2: Female,15/07/2023,002,1: right,2023_Jul_15_1250,[FINAL]_fmri_multiplication,2021.2.3,60.04192307195406
block8.xlsx,151.6,7.5,2,4 x 8,32,24,8 x 4 = 32,large-sized_high-interference,large-sized,high-interference,25,CorrectRESP,a,0,3,3,3,0,10,10,10,,,,,,,,,,,,,,,1036.17295,None,1036.6729323090003,None,1038.6728389210002,None,1039.422958,None,1039.6725850130006,None,1039.6725850130006,None,d,0,0.35193536800034053,1039.6725850130006,None,1040.0563115389996,None,1040.0563115389996,None,d,0.1921613639988209,1040.0563115389996,None,1040.2705742519993,None,,,,,sub-02,26/07/2002,2: Female,15/07/2023,002,1: right,2023_Jul_15_1250,[FINAL]_fmri_multiplication,2021.2.3,60.04192307195406
block8.xlsx,161.1,7.5,13.1,9 x 9,72,16,9 x 9 = 72,large-sized_low-interference,large-sized,low-interference,6,IncorrectRESP,d,0,3,3,3,0,11,11,11,,,,,,,,,,,,,,,1042.272786,None,1042.7724455650005,None,1044.7726028710003,None,1045.5224469450004,None,1045.7724494590002,None,1045.7724494590002,None,a,0,0.5322113920010452,1045.7724494590002,None,1046.3221053279995,None,1046.3221053279995,None,d,0.18258753900045122,1046.3221053279995,None,1046.5219626489998,None,,,,,sub-02,26/07/2002,2: Female,15/07/2023,002,1: right,2023_Jul_15_1250,[FINAL]_fmri_multiplication,2021.2.3,60.04192307195406
block8.xlsx,181.7,7.5,2.4,5 x 4,16,8,4 x 5 = 16,small-sized_high-interference,small-sized,high-interference,8,IncorrectRESP,d,0,3,3,3,0,12,12,12,,,,,,,,,,,,,,,1059.6220237969992,None,1060.1224392029999,None,1062.122439,None,1062.872382862999,None,1063.122181,None,1063.122181,None,a,0,0.4384219559997291,1063.122181,None,1063.588782380999,None,1063.588782380999,None,d,0.17182874400168657,1063.588782380999,None,1063.789092265999,None,,,,,sub-02,26/07/2002,2: Female,15/07/2023,002,1: right,2023_Jul_15_1250,[FINAL]_fmri_multiplication,2021.2.3,60.04192307195406
block8.xlsx,191.6,7.5,5.7,7 x 7,56,18,7 x 7 = 56,large-sized_low-interference,large-sized,low-interference,7,IncorrectRESP,d,0,3,3,3,0,13,13,13,,,,,,,,,,,,,,,1066.1892685210005,None,1066.688972,None,1068.6884652909994,None,1069.4422598359997,None,1069.7055471969998,None,1069.7055471969998,None,a,0,0.45503253400056565,1069.7055471969998,None,1070.1766259840006,None,1070.1766259840006,None,d,0.2079048639989196,1070.1766259840006,None,1070.4031424879995,None,,,,,sub-02,26/07/2002,2: Female,15/07/2023,002,1: right,2023_Jul_15_1250,[FINAL]_fmri_multiplication,2021.2.3,60.04192307195406
block8.xlsx,204.8,7.5,2.2,9 x 2,18,2,2 x 9 = 18,small-sized_low-interference,small-sized,low-interference,7,CorrectRESP,a,0,3,3,3,0,14,14,14,,,,,,,,,,,,,,,1076.1184930349991,None,1076.6226997970007,None,1078.6225457830005,None,1079.3724827370006,None,1079.6221238039998,None,1079.6221238039998,None,d,0,0.4824509579993901,1079.6221238039998,None,1080.1220308270003,None,1080.1220308270003,None,d,0.2065868940007931,1080.1220308270003,None,1080.3550270790001,None,,,,,sub-02,26/07/2002,2: Female,15/07/2023,002,1: right,2023_Jul_15_1250,[FINAL]_fmri_multiplication,2021.2.3,60.04192307195406
block8.xlsx,214.5,7.5,5.2,8 x 3,21,12,3 x 8 = 21,small-sized_high-interference,small-sized,high-interference,13,IncorrectRESP,d,0,3,3,3,0,15,15,15,,,,,,,,,,,,,,,1082.5556890320004,None,1083.0556080679999,None,1085.0560248050006,None,1085.8058728209999,None,1086.0558464240003,None,1086.0558464240003,None,a,0,0.42475958300019556,1086.0558464240003,None,1086.5054118560001,None,1086.5054118560001,None,d,0.1911270680011512,1086.5054118560001,None,1086.722155,None,,,,,sub-02,26/07/2002,2: Female,15/07/2023,002,1: right,2023_Jul_15_1250,[FINAL]_fmri_multiplication,2021.2.3,60.04192307195406
block8.xlsx,227.2,7.5,3.8,4 x 4,20,4,4 x 4 = 20,small-sized_low-interference,small-sized,low-interference,5,IncorrectRESP,d,0,3,3,3,0,16,16,16,,,,,,,,,,,,,,,1091.9224715500004,None,1092.4221151059992,None,1094.4220163139998,None,1095.1725107999991,None,1095.4224029979996,None,1095.4224029979996,None,a,0,0.41012396199948853,1095.4224029979996,None,1095.855233,None,1095.855233,None,d,0.177321238,1095.855233,None,1096.055707,None,,,,,sub-02,26/07/2002,2: Female,15/07/2023,002,1: right,2023_Jul_15_1250,[FINAL]_fmri_multiplication,2021.2.3,60.04192307195406
block8.xlsx,238.5,7.5,2,4 x 6,28,10,6 x 4 = 28,small-sized_high-interference,small-sized,high-interference,12,IncorrectRESP,d,0,3,3,3,0,17,17,17,,,,,,,,,,,,,,,1099.8558241449991,None,1100.3555534949992,None,1102.3559139930003,None,1103.1053522010006,None,1103.372358749999,None,1103.372358749999,None,a,0,0.5000923320003494,1103.372358749999,None,1103.9060094249999,None,1103.9060094249999,None,d,0.1665739140007645,1103.9060094249999,None,1104.089327,None,,,,,sub-02,26/07/2002,2: Female,15/07/2023,002,1: right,2023_Jul_15_1250,[FINAL]_fmri_multiplication,2021.2.3,60.04192307195406
block8.xlsx,248,7.5,4,6 x 5,30,14,5 x 6 = 30,large-sized_low-interference,large-sized,low-interference,6,CorrectRESP,a,0,3,3,3,0,18,18,18,,,,,,,,,,,,,,,1106.086303,None,1106.5813706560002,None,1108.5896039170002,None,1109.339548,None,1109.5896308869997,None,1109.5896308869997,None,d,0,0.426916168,1109.5896308869997,None,1110.0390898639998,None,1110.0390898639998,None,d,0.17754076500023075,1110.0390898639998,None,1110.2389811030007,None,,,,,sub-02,26/07/2002,2: Female,15/07/2023,002,1: right,2023_Jul_15_1250,[FINAL]_fmri_multiplication,2021.2.3,60.04192307195406
block8.xlsx,259.5,7.5,11.3,7 x 8,56,22,8 x 7 = 56,large-sized_high-interference,large-sized,high-interference,9,CorrectRESP,a,0,3,3,3,0,19,19,19,,,,,,,,,,,,,,,1114.238747,None,1114.7388778580007,None,1116.7389697870003,None,1117.489152,None,1117.7378292840003,None,1117.7378292840003,None,d,0,0.4145715399990877,1117.7378292840003,None,1118.1719893190002,None,1118.1719893190002,None,d,0.34063682799933304,1118.1719893190002,None,1118.53914,None,,,,,sub-02,26/07/2002,2: Female,15/07/2023,002,1: right,2023_Jul_15_1250,[FINAL]_fmri_multiplication,2021.2.3,60.04192307195406
block8.xlsx,278.3,7.5,10.9,6 x 5,36,14,5 x 6 = 36,large-sized_low-interference,large-sized,low-interference,6,IncorrectRESP,d,0,3,3,3,0,20,20,20,,,,,,,,,,,,,,,1129.8386536769995,None,1130.339013,None,1132.3390820170007,None,1133.0890798700002,None,1133.3376275810006,None,1133.3376275810006,None,a,0,0.5510273580002831,1133.3376275810006,None,1133.9057644200002,None,1133.9057644200002,None,d,0.16675497100004577,1133.9057644200002,None,1134.1051168180002,None,,,,,sub-02,26/07/2002,2: Female,15/07/2023,002,1: right,2023_Jul_15_1250,[FINAL]_fmri_multiplication,2021.2.3,60.04192307195406
block8.xlsx,296.7,7.5,3.5,9 x 4,36,20,4 x 9 = 36,large-sized_high-interference,large-sized,high-interference,9,CorrectRESP,a,0,3,3,3,0,21,21,21,,,,,,,,,,,,,,,1145.0061917460007,None,1145.5064572289994,None,1147.5062934950001,None,1148.2561629329994,None,1148.504903,None,1148.504903,None,d,0,0.41572145800091675,1148.504903,None,1148.9384876910008,None,1148.9384876910008,None,d,0.18212142099946504,1148.9384876910008,None,1149.1387682059994,None,,,,,sub-02,26/07/2002,2: Female,15/07/2023,002,1: right,2023_Jul_15_1250,[FINAL]_fmri_multiplication,2021.2.3,60.04192307195406
block8.xlsx,307.7,7.5,2.9,4 x 4,16,4,4 x 4 = 16,small-sized_low-interference,small-sized,low-interference,5,CorrectRESP,a,0,3,3,3,0,22,22,22,,,,,,,,,,,,,,,1152.6395858680007,None,1153.138514664999,None,1155.1390008039998,None,1155.8891690519995,None,1156.1388104039997,None,1156.1388104039997,None,d,0,0.46970371099996555,1156.1388104039997,None,1156.6390092319998,None,1156.6390092319998,None,d,0.161520614,1156.6390092319998,None,1156.8220236420002,None,,,,,sub-02,26/07/2002,2: Female,15/07/2023,002,1: right,2023_Jul_15_1250,[FINAL]_fmri_multiplication,2021.2.3,60.04192307195406
block8.xlsx,318.1,7.5,9.4,4 x 8,28,24,8 x 4 = 28,large-sized_high-interference,large-sized,high-interference,25,IncorrectRESP,d,0,3,3,3,0,23,23,23,,,,,,,,,,,,,,,1159.7224852719992,None,1160.2227361269997,None,1162.2218338099992,None,1162.972468906999,None,1163.223044033999,None,1163.223044033999,None,a,0,0.4814988779999112,1163.223044033999,None,1163.7221484710008,None,1163.7221484710008,None,d,0.1904811759995937,1163.7221484710008,None,1163.9387654969996,None,,,,,sub-02,26/07/2002,2: Female,15/07/2023,002,1: right,2023_Jul_15_1250,[FINAL]_fmri_multiplication,2021.2.3,60.04192307195406
block8.xlsx,,,,,,,,,,,,,,0,3,3,3,,,,,0,0,0,0,,,,,,,,,,,,,,,,,,,,,,,,,,,,,,,,,,,,,,1173.3392621010007,None,1173.3392621010007,None,sub-02,26/07/2002,2: Female,15/07/2023,002,1: right,2023_Jul_15_1250,[FINAL]_fmri_multiplication,2021.2.3,60.04192307195406
block8.xlsx,,,,,,,,,,,,,,0,3,3,3,,,,,1,0,1,0,,,,,,,,,,,,,,,,,,,,,,,,,,,,,,,,,,,,,,1174.3397271430003,None,1174.3397271430003,None,sub-02,26/07/2002,2: Female,15/07/2023,002,1: right,2023_Jul_15_1250,[FINAL]_fmri_multiplication,2021.2.3,60.04192307195406
block8.xlsx,,,,,,,,,,,,,,0,3,3,3,,,,,2,0,2,0,,,,,,,,,,,,,,,,,,,,,,,,,,,,,,,,,,,,,,1175.350256,None,1175.350256,None,sub-02,26/07/2002,2: Female,15/07/2023,002,1: right,2023_Jul_15_1250,[FINAL]_fmri_multiplication,2021.2.3,60.04192307195406
block8.xlsx,,,,,,,,,,,,,,0,3,3,3,,,,,3,0,3,0,,,,,,,,,,,,,,,,,,,,,,,,,,,,,,,,,,,,,,1176.356464557999,None,1176.356464557999,None,sub-02,26/07/2002,2: Female,15/07/2023,002,1: right,2023_Jul_15_1250,[FINAL]_fmri_multiplication,2021.2.3,60.04192307195406
block8.xlsx,,,,,,,,,,,,,,0,3,3,3,,,,,4,0,4,0,,,,,,,,,,,,,,,,,,,,,,,,,,,,,,,,,,,,,,1177.3575643559998,None,1177.3575643559998,None,sub-02,26/07/2002,2: Female,15/07/2023,002,1: right,2023_Jul_15_1250,[FINAL]_fmri_multiplication,2021.2.3,60.04192307195406
block8.xlsx,,,,,,,,,,,,,,0,3,3,3,,,,,5,0,5,0,,,,,,,,,,,,,,,,,,,,,,,,,,,,,,,,,,,,,,1178.3572897819995,None,1178.3572897819995,None,sub-02,26/07/2002,2: Female,15/07/2023,002,1: right,2023_Jul_15_1250,[FINAL]_fmri_multiplication,2021.2.3,60.04192307195406
block8.xlsx,,,,,,,,,,,,,,0,3,3,3,,,,,6,0,6,0,,,,,,,,,,,,,,,,,,,,,,,,,,,,,,,,,,,,,,1179.356836,None,1179.356836,None,sub-02,26/07/2002,2: Female,15/07/2023,002,1: right,2023_Jul_15_1250,[FINAL]_fmri_multiplication,2021.2.3,60.04192307195406
block8.xlsx,,,,,,,,,,,,,,0,3,3,3,,,,,7,0,7,0,,,,,,,,,,,,,,,,,,,,,,,,,,,,,,,,,,,,,,1180.356848031999,None,1180.356848031999,None,sub-02,26/07/2002,2: Female,15/07/2023,002,1: right,2023_Jul_15_1250,[FINAL]_fmri_multiplication,2021.2.3,60.04192307195406
block8.xlsx,,,,,,,,,,,,,,0,3,3,3,,,,,8,0,8,0,,,,,,,,,,,,,,,,,,,,,,,,,,,,,,,,,,,,,,1181.3576708780001,None,1181.3576708780001,None,sub-02,26/07/2002,2: Female,15/07/2023,002,1: right,2023_Jul_15_1250,[FINAL]_fmri_multiplication,2021.2.3,60.04192307195406
block8.xlsx,,,,,,,,,,,,,,0,3,3,3,,,,,9,0,9,0,,,,,,,,,,,,,,,,,,,,,,,,,,,,,,,,,,,,,,1182.3572877980005,None,1182.3572877980005,None,sub-02,26/07/2002,2: Female,15/07/2023,002,1: right,2023_Jul_15_1250,[FINAL]_fmri_multiplication,2021.2.3,60.04192307195406
block8.xlsx,,,,,,,,,,,,,,0,3,3,3,,,,,10,0,10,0,,,,,,,,,,,,,,,,,,,,,,,,,,,,,,,,,,,,,,1183.3408927729997,None,1183.3408927729997,None,sub-02,26/07/2002,2: Female,15/07/2023,002,1: right,2023_Jul_15_1250,[FINAL]_fmri_multiplication,2021.2.3,60.04192307195406
block8.xlsx,,,,,,,,,,,,,,0,3,3,3,,,,,11,0,11,0,,,,,,,,,,,,,,,,,,,,,,,,,,,,,,,,,,,,,,1184.3555151849996,None,1184.3555151849996,None,sub-02,26/07/2002,2: Female,15/07/2023,002,1: right,2023_Jul_15_1250,[FINAL]_fmri_multiplication,2021.2.3,60.04192307195406
block8.xlsx,,,,,,,,,,,,,,0,3,3,3,,,,,12,0,12,0,,,,,,,,,,,,,,,,,,,,,,,,,,,,,,,,,,,,,,1185.3544318309996,None,1185.3544318309996,None,sub-02,26/07/2002,2: Female,15/07/2023,002,1: right,2023_Jul_15_1250,[FINAL]_fmri_multiplication,2021.2.3,60.04192307195406
block8.xlsx,,,,,,,,,,,,,,0,3,3,3,,,,,13,0,13,0,,,,,,,,,,,,,,,,,,,,,,,,,,,,,,,,,,,,,,1186.3554592429991,None,1186.3554592429991,None,sub-02,26/07/2002,2: Female,15/07/2023,002,1: right,2023_Jul_15_1250,[FINAL]_fmri_multiplication,2021.2.3,60.04192307195406
block8.xlsx,,,,,,,,,,,,,,0,3,3,3,,,,,14,0,14,0,,,,,,,,,,,,,,,,,,,,,,,,,,,,,,,,,,,,,,1187.3551691419998,None,1187.3551691419998,None,sub-02,26/07/2002,2: Female,15/07/2023,002,1: right,2023_Jul_15_1250,[FINAL]_fmri_multiplication,2021.2.3,60.04192307195406
block8.xlsx,,,,,,,,,,,,,,0,3,3,3,,,,,15,0,15,0,,,,,,,,,,,,,,,,,,,,,,,,,,,,,,,,,,,,,,1188.3539576500007,None,1188.3539576500007,None,sub-02,26/07/2002,2: Female,15/07/2023,002,1: right,2023_Jul_15_1250,[FINAL]_fmri_multiplication,2021.2.3,60.04192307195406
block8.xlsx,,,,,,,,,,,,,,0,3,3,3,,,,,16,0,16,0,,,,,,,,,,,,,,,,,,,,,,,,,,,,,,,,,,,,,,1189.3556059769999,None,1189.3556059769999,None,sub-02,26/07/2002,2: Female,15/07/2023,002,1: right,2023_Jul_15_1250,[FINAL]_fmri_multiplication,2021.2.3,60.04192307195406
block8.xlsx,,,,,,,,,,,,,,0,3,3,3,,,,,17,0,17,0,,,,,,,,,,,,,,,,,,,,,,,,,,,,,,,,,,,,,,1190.3564794859994,None,1190.3564794859994,None,sub-02,26/07/2002,2: Female,15/07/2023,002,1: right,2023_Jul_15_1250,[FINAL]_fmri_multiplication,2021.2.3,60.04192307195406
block8.xlsx,,,,,,,,,,,,,,0,3,3,3,,,,,18,0,18,0,,,,,,,,,,,,,,,,,,,,,,,,,,,,,,,,,,,,,,1191.3559865770003,None,1191.3559865770003,None,sub-02,26/07/2002,2: Female,15/07/2023,002,1: right,2023_Jul_15_1250,[FINAL]_fmri_multiplication,2021.2.3,60.04192307195406
block8.xlsx,,,,,,,,,,,,,,0,3,3,3,,,,,19,0,19,0,,,,,,,,,,,,,,,,,,,,,,,,,,,,,,,,,,,,,,1192.3546918600005,None,1192.3546918600005,None,sub-02,26/07/2002,2: Female,15/07/2023,002,1: right,2023_Jul_15_1250,[FINAL]_fmri_multiplication,2021.2.3,60.04192307195406
block8.xlsx,,,,,,,,,,,,,,0,3,3,3,,,,,20,0,20,0,,,,,,,,,,,,,,,,,,,,,,,,,,,,,,,,,,,,,,1193.355796583999,None,1193.355796583999,None,sub-02,26/07/2002,2: Female,15/07/2023,002,1: right,2023_Jul_15_1250,[FINAL]_fmri_multiplication,2021.2.3,60.04192307195406
block8.xlsx,,,,,,,,,,,,,,0,3,3,3,,,,,21,0,21,0,,,,,,,,,,,,,,,,,,,,,,,,,,,,,,,,,,,,,,1194.3556357790003,None,1194.3556357790003,None,sub-02,26/07/2002,2: Female,15/07/2023,002,1: right,2023_Jul_15_1250,[FINAL]_fmri_multiplication,2021.2.3,60.04192307195406
block8.xlsx,,,,,,,,,,,,,,0,3,3,3,,,,,22,0,22,0,,,,,,,,,,,,,,,,,,,,,,,,,,,,,,,,,,,,,,1195.355742,None,1195.355742,None,sub-02,26/07/2002,2: Female,15/07/2023,002,1: right,2023_Jul_15_1250,[FINAL]_fmri_multiplication,2021.2.3,60.04192307195406
block8.xlsx,,,,,,,,,,,,,,0,3,3,3,,,,,23,0,23,0,,,,,,,,,,,,,,,,,,,,,,,,,,,,,,,,,,,,,,1196.354536,None,1196.354536,None,sub-02,26/07/2002,2: Female,15/07/2023,002,1: right,2023_Jul_15_1250,[FINAL]_fmri_multiplication,2021.2.3,60.04192307195406
block8.xlsx,,,,,,,,,,,,,,0,3,3,3,,,,,24,0,24,0,,,,,,,,,,,,,,,,,,,,,,,,,,,,,,,,,,,,,,1197.3558000859994,None,1197.3558000859994,None,sub-02,26/07/2002,2: Female,15/07/2023,002,1: right,2023_Jul_15_1250,[FINAL]_fmri_multiplication,2021.2.3,60.04192307195406
block8.xlsx,,,,,,,,,,,,,,0,3,3,3,,,,,25,0,25,0,,,,,,,,,,,,,,,,,,,,,,,,,,,,,,,,,,,,,,1198.3555551139998,None,1198.3555551139998,None,sub-02,26/07/2002,2: Female,15/07/2023,002,1: right,2023_Jul_15_1250,[FINAL]_fmri_multiplication,2021.2.3,60.04192307195406
block8.xlsx,,,,,,,,,,,,,,0,3,3,3,,,,,26,0,26,0,,,,,,,,,,,,,,,,,,,,,,,,,,,,,,,,,,,,,,1199.3556447299998,None,1199.3556447299998,None,sub-02,26/07/2002,2: Female,15/07/2023,002,1: right,2023_Jul_15_1250,[FINAL]_fmri_multiplication,2021.2.3,60.04192307195406
block8.xlsx,,,,,,,,,,,,,,0,3,3,3,,,,,27,0,27,0,,,,,,,,,,,,,,,,,,,,,,,,,,,,,,,,,,,,,,1200.3553003359993,None,1200.3553003359993,None,sub-02,26/07/2002,2: Female,15/07/2023,002,1: right,2023_Jul_15_1250,[FINAL]_fmri_multiplication,2021.2.3,60.04192307195406
block8.xlsx,,,,,,,,,,,,,,0,3,3,3,,,,,28,0,28,0,,,,,,,,,,,,,,,,,,,,,,,,,,,,,,,,,,,,,,1201.3553113229991,None,1201.3553113229991,None,sub-02,26/07/2002,2: Female,15/07/2023,002,1: right,2023_Jul_15_1250,[FINAL]_fmri_multiplication,2021.2.3,60.04192307195406
block8.xlsx,,,,,,,,,,,,,,0,3,3,3,,,,,29,0,29,0,,,,,,,,,,,,,,,,,,,,,,,,,,,,,,,,,,,,,,1202.3542132490002,None,1202.3542132490002,None,sub-02,26/07/2002,2: Female,15/07/2023,002,1: right,2023_Jul_15_1250,[FINAL]_fmri_multiplication,2021.2.3,60.04192307195406
block8.xlsx,,,,,,,,,,,,,,0,3,3,3,,,,,,,,,,,,,,,,,,,,,,,,,,,,,,,,,,,,,,,,,,,,,,,,,,sub-02,26/07/2002,2: Female,15/07/2023,002,1: right,2023_Jul_15_1250,[FINAL]_fmri_multiplication,2021.2.3,60.04192307195406