blocks_file,start,dur,rest,mult_problemB,mult_options,stim_trial,mult_stim,type,ProblemSize,InterferenceLH,InterferenceLevel,mult_type,corrRESP,blocks_set.thisRepN,blocks_set.thisTrialN,blocks_set.thisN,blocks_set.thisIndex,TRIALS.thisRepN,TRIALS.thisTrialN,TRIALS.thisN,TRIALS.thisIndex,timer_loop.thisRepN,timer_loop.thisTrialN,timer_loop.thisN,timer_loop.thisIndex,WAIT_TEXT.started,WAIT_TEXT.stopped,scan_start_trigger.keys,scan_start_trigger.rt,scan_start_trigger.started,scan_start_trigger.stopped,MAIN_SCREEN.started,MAIN_SCREEN.stopped,Block_Text.started,Block_Text.stopped,asterisk500ms.started,asterisk500ms.stopped,mult_question_text.started,mult_question_text.stopped,equal_text.started,equal_text.stopped,blank250_text.started,blank250_text.stopped,Mult_OPTION.started,Mult_OPTION.stopped,Mult_YN.started,Mult_YN.stopped,Mult_Resp.keys,Mult_Resp.corr,Mult_Resp.rt,Mult_Resp.started,Mult_Resp.stopped,Strategy_Q.started,Strategy_Q.stopped,Strategy_Option.started,Strategy_Option.stopped,Strategy_RESP.keys,Strategy_RESP.rt,Strategy_RESP.started,Strategy_RESP.stopped,jitters.started,jitters.stopped,resting_text.started,resting_text.stopped,countdown_timer.started,countdown_timer.stopped,End_Text.started,End_Text.stopped,fixation.started,fixation.stopped,fixation_end.keys,fixation_end.rt,fixation_end.started,fixation_end.stopped,participant,Date of birth (DD/MM/YEAR),gender,Testing Date (DD/MM/YEAR),session,handedness,date,expName,psychopyVersion,frameRate
,,,,,,,,,,,,,,,,,,,,,,,,,,26.528727742999763,None,s,5.261866894999912,26.528727742999763,None,,,,,,,,,,,,,,,,,,,,,,,,,,,,,,,,,,,,,,,,,,,,sub-15,22/12/2004,2: Female,14/10/2023,002,1: right,2023_Oct_14_1105,[FINAL]_fmri_multiplication,2021.2.3,59.90156376037741
block5.xlsx,10,7.5,4.6,3 x 6,18,7,6 x 3 = 18,small-sized_high-interference,small-sized,high-interference,8,CorrectRESP,a,0,0,0,0,0,0,0,0,,,,,,,,,,,31.812356037000427,None,36.83084052800041,None,46.85134949299936,None,47.332243310000194,None,49.328483167999366,None,50.07855738,None,50.33088888800012,None,50.33088888800012,None,d,0,1.4392325930002698,50.33088888800012,None,51.79481469699931,None,51.79481469699931,None,d,1.5513067330011836,51.79481469699931,None,53.37866986699919,None,,,,,,,,,,,,,sub-15,22/12/2004,2: Female,14/10/2023,002,1: right,2023_Oct_14_1105,[FINAL]_fmri_multiplication,2021.2.3,59.90156376037741
block5.xlsx,22.1,7.5,7,9 x 9,72,16,9 x 9 = 72,large-sized_low-interference,large-sized,low-interference,6,IncorrectRESP,d,0,0,0,0,0,1,1,1,,,,,,,,,,,,,,,57.97843732900037,None,58.48067948899916,None,60.495157584999106,None,61.24548512399997,None,61.49819263899917,None,61.49819263899917,None,a,0,0.8879735700011224,61.49819263899917,None,62.41127598700041,None,62.41127598700041,None,d,0.534836073,62.41127598700041,None,62.97876540899961,None,,,,,,,,,,,,,sub-15,22/12/2004,2: Female,14/10/2023,002,1: right,2023_Oct_14_1105,[FINAL]_fmri_multiplication,2021.2.3,59.90156376037741
block5.xlsx,36.6,7.5,4.4,2 x 6,12,6,6 x 2 = 12,small-sized_low-interference,small-sized,low-interference,3,CorrectRESP,a,0,0,0,0,0,2,2,2,,,,,,,,,,,,,,,69.97849227,None,70.47864969299917,None,72.47833370499939,None,73.22762495899951,None,73.4784925,None,73.4784925,None,d,0,0.6756307629984803,73.4784925,None,74.17798649799988,None,74.17798649799988,None,d,0.9201074789998529,74.17798649799988,None,75.12792943100067,None,,,,,,,,,,,,,sub-15,22/12/2004,2: Female,14/10/2023,002,1: right,2023_Oct_14_1105,[FINAL]_fmri_multiplication,2021.2.3,59.90156376037741
block5.xlsx,48.5,7.5,9.6,8 x 3,24,12,3 x 8 = 24,small-sized_high-interference,small-sized,high-interference,13,CorrectRESP,a,0,0,0,0,0,3,3,3,,,,,,,,,,,,,,,79.52800693300014,None,80.02841803000047,None,82.02835857,None,82.77857973699975,None,83.03004173,None,83.03004173,None,a,1,1.4680618179991143,83.03004173,None,84.52855429400006,None,84.52855429400006,None,a,0.7295907560001069,84.52855429400006,None,85.27816752400031,None,,,,,,,,,,,,,sub-15,22/12/2004,2: Female,14/10/2023,002,1: right,2023_Oct_14_1105,[FINAL]_fmri_multiplication,2021.2.3,59.90156376037741
block5.xlsx,65.6,7.5,5.4,5 x 5,30,3,5 x 5 = 30,small-sized_low-interference,small-sized,low-interference,3,IncorrectRESP,d,0,0,0,0,0,4,4,4,,,,,,,,,,,,,,,94.87798646599913,None,95.38078526900063,None,97.39556236299904,None,98.14539628,None,98.39642848100084,None,98.39642848100084,None,a,0,1.0217283540005155,98.39642848100084,None,99.44494104099977,None,99.44494104099977,None,d,0.6451996610012429,99.44494104099977,None,100.11127459899944,None,,,,,,,,,,,,,sub-15,22/12/2004,2: Female,14/10/2023,002,1: right,2023_Oct_14_1105,[FINAL]_fmri_multiplication,2021.2.3,59.90156376037741
block5.xlsx,78.5,7.5,7.7,3 x 9,27,19,9 x 3 = 27,large-sized_high-interference,large-sized,high-interference,9,CorrectRESP,a,0,0,0,0,0,5,5,5,,,,,,,,,,,,,,,105.51171190499917,None,106.01165028799915,None,108.01172913399932,None,108.76177958799963,None,109.0122446839996,None,109.0122446839996,None,d,0,1.717882582999664,109.0122446839996,None,110.76213923400064,None,110.76213923400064,None,d,0.3999912819999736,110.76213923400064,None,111.19508230000065,None,,,,,,,,,,,,,sub-15,22/12/2004,2: Female,14/10/2023,002,1: right,2023_Oct_14_1105,[FINAL]_fmri_multiplication,2021.2.3,59.90156376037741
block5.xlsx,93.7,7.5,3.5,2 x 8,18,5,8 x 2 = 18,small-sized_low-interference,small-sized,low-interference,7,IncorrectRESP,d,0,0,0,0,0,6,6,6,,,,,,,,,,,,,,,118.89511449699967,None,119.3949203939992,None,121.3950873,None,122.1452102330004,None,122.39533350599959,None,122.39533350599959,None,None,0,,122.39533350599959,None,124.39502610800082,None,124.39502610800082,None,d,0.21514221800134692,124.39502610800082,None,124.63660298200011,None,,,,,,,,,,,,,sub-15,22/12/2004,2: Female,14/10/2023,002,1: right,2023_Oct_14_1105,[FINAL]_fmri_multiplication,2021.2.3,59.90156376037741
block5.xlsx,104.7,7.5,6.4,7 x 7,49,18,7 x 7 = 49,large-sized_low-interference,large-sized,low-interference,7,CorrectRESP,a,0,0,0,0,0,7,7,7,,,,,,,,,,,,,,,128.14546028199948,None,128.64544221799952,None,130.64545280600032,None,131.39548757199918,None,131.6456953220004,None,131.6456953220004,None,d,0,0.7164265729988983,131.6456953220004,None,132.3946944,None,132.3946944,None,d,0.4794128829998954,132.3946944,None,132.89481525500014,None,,,,,,,,,,,,,sub-15,22/12/2004,2: Female,14/10/2023,002,1: right,2023_Oct_14_1105,[FINAL]_fmri_multiplication,2021.2.3,59.90156376037741
block5.xlsx,118.6,7.5,3.2,8 x 5,45,21,5 x 8 = 45,large-sized_high-interference,large-sized,high-interference,9,IncorrectRESP,d,0,0,0,0,0,8,8,8,,,,,,,,,,,,,,,139.29528306099928,None,139.79555694100054,None,141.79513458899964,None,142.54524421099995,None,142.79644933899908,None,142.79644933899908,None,None,0,,142.79644933899908,None,144.81131292600003,None,144.81131292600003,None,a,0.72681668,144.81131292600003,None,145.5612025089995,None,,,,,,,,,,,,,sub-15,22/12/2004,2: Female,14/10/2023,002,1: right,2023_Oct_14_1105,[FINAL]_fmri_multiplication,2021.2.3,59.90156376037741
block5.xlsx,129.3,7.5,6.8,5 x 4,20,8,4 x 5 = 20,small-sized_high-interference,small-sized,high-interference,8,CorrectRESP,a,0,0,0,0,0,9,9,9,,,,,,,,,,,,,,,148.7612712709997,None,149.26192999399973,None,151.2618123,None,152.01179824999963,None,152.2631160159999,None,152.2631160159999,None,d,0,0.5070755579999968,152.2631160159999,None,152.79462724800032,None,152.79462724800032,None,d,0.6235990400000446,152.79462724800032,None,153.4448315440004,None,,,,,,,,,,,,,sub-15,22/12/2004,2: Female,14/10/2023,002,1: right,2023_Oct_14_1105,[FINAL]_fmri_multiplication,2021.2.3,59.90156376037741
block5.xlsx,143.6,7.5,5.5,6 x 5,30,14,5 x 6 = 30,large-sized_low-interference,large-sized,low-interference,6,CorrectRESP,a,0,0,0,0,0,10,10,10,,,,,,,,,,,,,,,160.24634130199956,None,160.74609127700023,None,162.74557214299966,None,163.4954530089999,None,163.7461799770008,None,163.7461799770008,None,d,0,0.7120266719994106,163.7461799770008,None,164.47838083200077,None,164.47838083200077,None,d,0.35586554699875705,164.47838083200077,None,164.86222055500002,None,,,,,,,,,,,,,sub-15,22/12/2004,2: Female,14/10/2023,002,1: right,2023_Oct_14_1105,[FINAL]_fmri_multiplication,2021.2.3,59.90156376037741
block5.xlsx,156.6,7.5,6,3 x 7,24,11,7 x 3 = 24,small-sized_high-interference,small-sized,high-interference,13,IncorrectRESP,d,0,0,0,0,0,11,11,11,,,,,,,,,,,,,,,170.36181534800016,None,170.8618970330008,None,172.86216764600067,None,173.61183960299968,None,173.8619530119995,None,173.8619530119995,None,a,0,0.9722777139995742,173.8619530119995,None,174.8617439160007,None,174.8617439160007,None,a,0.32448441999986244,174.8617439160007,None,175.21145867999985,None,,,,,,,,,,,,,sub-15,22/12/2004,2: Female,14/10/2023,002,1: right,2023_Oct_14_1105,[FINAL]_fmri_multiplication,2021.2.3,59.90156376037741
block5.xlsx,170.1,7.5,7.1,5 x 7,40,17,7 x 5 = 40,large-sized_low-interference,large-sized,low-interference,7,IncorrectRESP,d,0,0,0,0,0,12,12,12,,,,,,,,,,,,,,,181.2115432419996,None,181.71214249500008,None,183.71168859499994,None,184.46165434499926,None,184.71241582999937,None,184.71241582999937,None,None,0,,184.71241582999937,None,186.72810586500054,None,186.72810586500054,None,a,0.21802792500056967,186.72810586500054,None,186.97802325500015,None,,,,,,,,,,,,,sub-15,22/12/2004,2: Female,14/10/2023,002,1: right,2023_Oct_14_1105,[FINAL]_fmri_multiplication,2021.2.3,59.90156376037741
block5.xlsx,184.7,7.5,5.3,4 x 6,28,10,6 x 4 = 28,small-sized_high-interference,small-sized,high-interference,12,IncorrectRESP,d,0,0,0,0,0,13,13,13,,,,,,,,,,,,,,,194.07798068599914,None,194.57979333599906,None,196.5788833989991,None,197.32885725199958,None,197.5793567740002,None,197.5793567740002,None,a,0,1.4868944589998137,197.5793567740002,None,199.09552443400025,None,199.09552443400025,None,d,0.3626589960003912,199.09552443400025,None,199.47837104599967,None,,,,,,,,,,,,,sub-15,22/12/2004,2: Female,14/10/2023,002,1: right,2023_Oct_14_1105,[FINAL]_fmri_multiplication,2021.2.3,59.90156376037741
block5.xlsx,197.5,7.5,4.2,2 x 7,14,1,7 x 2 = 14,small-sized_low-interference,small-sized,low-interference,4,CorrectRESP,a,0,0,0,0,0,14,14,14,,,,,,,,,,,,,,,204.7785442429995,None,205.27849891699952,None,207.27918494500045,None,208.0283688920008,None,208.27836090600067,None,208.27836090600067,None,d,0,1.1878843020003842,208.27836090600067,None,209.49524644300072,None,209.49524644300072,None,d,0.3549628440014203,209.49524644300072,None,209.87855386499905,None,,,,,,,,,,,,,sub-15,22/12/2004,2: Female,14/10/2023,002,1: right,2023_Oct_14_1105,[FINAL]_fmri_multiplication,2021.2.3,59.90156376037741
block5.xlsx,209.2,7.5,7.2,9 x 4,36,20,4 x 9 = 36,large-sized_high-interference,large-sized,high-interference,9,CorrectRESP,a,0,0,0,0,0,15,15,15,,,,,,,,,,,,,,,214.07798841799922,None,214.57919553399915,None,216.5783666719999,None,217.32829771999968,None,217.5786872640001,None,217.5786872640001,None,d,0,1.4555544849990838,217.5786872640001,None,219.06104715500078,None,219.06104715500078,None,a,0.7651723409999249,219.06104715500078,None,219.84455537699978,None,,,,,,,,,,,,,sub-15,22/12/2004,2: Female,14/10/2023,002,1: right,2023_Oct_14_1105,[FINAL]_fmri_multiplication,2021.2.3,59.90156376037741
block5.xlsx,223.9,7.5,4.3,4 x 4,20,4,4 x 4 = 20,small-sized_low-interference,small-sized,low-interference,5,IncorrectRESP,d,0,0,0,0,0,16,16,16,,,,,,,,,,,,,,,227.04498206899916,None,227.54571971900077,None,229.5453582659993,None,230.31256326599942,None,230.55021884599955,None,230.55021884599955,None,a,0,0.9959114579996822,230.55021884599955,None,231.5788222680003,None,231.5788222680003,None,a,0.34336830499887583,231.5788222680003,None,231.94516990800003,None,,,,,,,,,,,,,sub-15,22/12/2004,2: Female,14/10/2023,002,1: right,2023_Oct_14_1105,[FINAL]_fmri_multiplication,2021.2.3,59.90156376037741
block5.xlsx,235.7,7.5,9.9,6 x 7,48,23,7 x 6 = 48,large-sized_high-interference,large-sized,high-interference,22,IncorrectRESP,d,0,0,0,0,0,17,17,17,,,,,,,,,,,,,,,236.24526202599918,None,236.74593569200078,None,238.74519412799964,None,239.4955157,None,239.74679391499922,None,239.74679391499922,None,a,0,1.951304304999212,239.74679391499922,None,241.72840297100083,None,241.72840297100083,None,a,0.7297665229998529,241.72840297100083,None,242.47807472100067,None,,,,,,,,,,,,,sub-15,22/12/2004,2: Female,14/10/2023,002,1: right,2023_Oct_14_1105,[FINAL]_fmri_multiplication,2021.2.3,59.90156376037741
block5.xlsx,253.1,7.5,3.1,9 x 2,18,2,2 x 9 = 18,small-sized_low-interference,small-sized,low-interference,7,CorrectRESP,a,0,0,0,0,0,18,18,18,,,,,,,,,,,,,,,252.3784775990007,None,252.8788532590006,None,254.87834743799976,None,255.62833111600048,None,255.87901066099948,None,255.87901066099948,None,d,0,1.7152405230008299,255.87901066099948,None,257.6118624739993,None,257.6118624739993,None,d,0.4224536639994767,257.6118624739993,None,258.06102736399953,None,,,,,,,,,,,,,sub-15,22/12/2004,2: Female,14/10/2023,002,1: right,2023_Oct_14_1105,[FINAL]_fmri_multiplication,2021.2.3,59.90156376037741
block5.xlsx,263.7,7.5,4.6,5 x 9,40,15,9 x 5 = 40,large-sized_low-interference,large-sized,low-interference,6,IncorrectRESP,d,0,0,0,0,0,19,19,19,,,,,,,,,,,,,,,261.1617946000006,None,261.66162717599946,None,263.66182736299925,None,264.41182882199973,None,264.6625592979999,None,264.6625592979999,None,a,0,1.6117133690004266,264.6625592979999,None,266.2898154930008,None,266.2898154930008,None,a,0.3203755230006209,266.2898154930008,None,266.62839600000007,None,,,,,,,,,,,,,sub-15,22/12/2004,2: Female,14/10/2023,002,1: right,2023_Oct_14_1105,[FINAL]_fmri_multiplication,2021.2.3,59.90156376037741
block5.xlsx,275.8,7.5,3.9,7 x 8,63,22,8 x 7 = 63,large-sized_high-interference,large-sized,high-interference,9,IncorrectRESP,d,0,0,0,0,0,20,20,20,,,,,,,,,,,,,,,271.2288751390006,None,271.7293615889994,None,273.7288306270002,None,274.4785595960002,None,274.7288971100006,None,274.7288971100006,None,None,0,,274.7288971100006,None,276.7280365229999,None,276.7280365229999,None,d,0.7542097460009245,276.7280365229999,None,277.5117550569994,None,,,,,,,,,,,,,sub-15,22/12/2004,2: Female,14/10/2023,002,1: right,2023_Oct_14_1105,[FINAL]_fmri_multiplication,2021.2.3,59.90156376037741
block5.xlsx,287.2,7.5,7.4,4 x 3,15,9,3 x 4 = 15,small-sized_high-interference,small-sized,high-interference,10,IncorrectRESP,d,0,0,0,0,0,21,21,21,,,,,,,,,,,,,,,281.4114844220003,None,281.91291577800075,None,283.9286258009997,None,284.6783781480008,None,284.92899951300024,None,284.92899951300024,None,a,0,0.6492737700009457,284.92899951300024,None,285.59521834599946,None,285.59521834599946,None,d,0.5109366050000972,285.59521834599946,None,286.1279456230004,None,,,,,,,,,,,,,sub-15,22/12/2004,2: Female,14/10/2023,002,1: right,2023_Oct_14_1105,[FINAL]_fmri_multiplication,2021.2.3,59.90156376037741
block5.xlsx,302.1,7.5,7.1,4 x 8,32,24,8 x 4 = 32,large-sized_high-interference,large-sized,high-interference,25,CorrectRESP,a,0,0,0,0,0,22,22,22,,,,,,,,,,,,,,,293.5286353,None,294.0292746899995,None,296.0450938699996,None,296.7951536349992,None,297.04570988699925,None,297.04570988699925,None,d,0,1.204536191000443,297.04570988699925,None,298.27872529699926,None,298.27872529699926,None,d,0.3715321679992485,298.27872529699926,None,298.6786057970003,None,,,,,,,,,,,,,sub-15,22/12/2004,2: Female,14/10/2023,002,1: right,2023_Oct_14_1105,[FINAL]_fmri_multiplication,2021.2.3,59.90156376037741
block5.xlsx,316.7,7.5,10.8,6 x 6,36,13,6 x 6 = 36,large-sized_low-interference,large-sized,low-interference,4,CorrectRESP,a,0,0,0,0,0,23,23,23,,,,,,,,,,,,,,,305.77904035100073,None,306.2787963459996,None,308.27880973299943,None,309.02881261900075,None,309.2790798629994,None,309.2790798629994,None,d,0,0.38716941399979987,309.2790798629994,None,309.6950416269992,None,309.6950416269992,None,d,0.34724485900005675,309.6950416269992,None,310.0615769220003,None,,,,,,,,,,,,,sub-15,22/12/2004,2: Female,14/10/2023,002,1: right,2023_Oct_14_1105,[FINAL]_fmri_multiplication,2021.2.3,59.90156376037741
block5.xlsx,,,,,,,,,,,,,,0,0,0,0,,,,,0,0,0,0,,,,,,,,,,,,,,,,,,,,,,,,,,,,,,,,,,,,,,320.8645522400002,None,320.8645522400002,None,,,,,,,,,sub-15,22/12/2004,2: Female,14/10/2023,002,1: right,2023_Oct_14_1105,[FINAL]_fmri_multiplication,2021.2.3,59.90156376037741
block5.xlsx,,,,,,,,,,,,,,0,0,0,0,,,,,1,0,1,0,,,,,,,,,,,,,,,,,,,,,,,,,,,,,,,,,,,,,,321.8924950319997,None,321.8924950319997,None,,,,,,,,,sub-15,22/12/2004,2: Female,14/10/2023,002,1: right,2023_Oct_14_1105,[FINAL]_fmri_multiplication,2021.2.3,59.90156376037741
block5.xlsx,,,,,,,,,,,,,,0,0,0,0,,,,,2,0,2,0,,,,,,,,,,,,,,,,,,,,,,,,,,,,,,,,,,,,,,322.8796300039994,None,322.8796300039994,None,,,,,,,,,sub-15,22/12/2004,2: Female,14/10/2023,002,1: right,2023_Oct_14_1105,[FINAL]_fmri_multiplication,2021.2.3,59.90156376037741
block5.xlsx,,,,,,,,,,,,,,0,0,0,0,,,,,3,0,3,0,,,,,,,,,,,,,,,,,,,,,,,,,,,,,,,,,,,,,,323.8803369819998,None,323.8803369819998,None,,,,,,,,,sub-15,22/12/2004,2: Female,14/10/2023,002,1: right,2023_Oct_14_1105,[FINAL]_fmri_multiplication,2021.2.3,59.90156376037741
block5.xlsx,,,,,,,,,,,,,,0,0,0,0,,,,,4,0,4,0,,,,,,,,,,,,,,,,,,,,,,,,,,,,,,,,,,,,,,324.8803137920004,None,324.8803137920004,None,,,,,,,,,sub-15,22/12/2004,2: Female,14/10/2023,002,1: right,2023_Oct_14_1105,[FINAL]_fmri_multiplication,2021.2.3,59.90156376037741
block5.xlsx,,,,,,,,,,,,,,0,0,0,0,,,,,5,0,5,0,,,,,,,,,,,,,,,,,,,,,,,,,,,,,,,,,,,,,,325.88084582400006,None,325.88084582400006,None,,,,,,,,,sub-15,22/12/2004,2: Female,14/10/2023,002,1: right,2023_Oct_14_1105,[FINAL]_fmri_multiplication,2021.2.3,59.90156376037741
block5.xlsx,,,,,,,,,,,,,,0,0,0,0,,,,,6,0,6,0,,,,,,,,,,,,,,,,,,,,,,,,,,,,,,,,,,,,,,326.88026518399965,None,326.88026518399965,None,,,,,,,,,sub-15,22/12/2004,2: Female,14/10/2023,002,1: right,2023_Oct_14_1105,[FINAL]_fmri_multiplication,2021.2.3,59.90156376037741
block5.xlsx,,,,,,,,,,,,,,0,0,0,0,,,,,7,0,7,0,,,,,,,,,,,,,,,,,,,,,,,,,,,,,,,,,,,,,,327.87897611399967,None,327.87897611399967,None,,,,,,,,,sub-15,22/12/2004,2: Female,14/10/2023,002,1: right,2023_Oct_14_1105,[FINAL]_fmri_multiplication,2021.2.3,59.90156376037741
block5.xlsx,,,,,,,,,,,,,,0,0,0,0,,,,,8,0,8,0,,,,,,,,,,,,,,,,,,,,,,,,,,,,,,,,,,,,,,328.8792807819991,None,328.8792807819991,None,,,,,,,,,sub-15,22/12/2004,2: Female,14/10/2023,002,1: right,2023_Oct_14_1105,[FINAL]_fmri_multiplication,2021.2.3,59.90156376037741
block5.xlsx,,,,,,,,,,,,,,0,0,0,0,,,,,9,0,9,0,,,,,,,,,,,,,,,,,,,,,,,,,,,,,,,,,,,,,,329.8807511340001,None,329.8807511340001,None,,,,,,,,,sub-15,22/12/2004,2: Female,14/10/2023,002,1: right,2023_Oct_14_1105,[FINAL]_fmri_multiplication,2021.2.3,59.90156376037741
block5.xlsx,,,,,,,,,,,,,,0,0,0,0,,,,,10,0,10,0,,,,,,,,,,,,,,,,,,,,,,,,,,,,,,,,,,,,,,330.8790339290008,None,330.8790339290008,None,,,,,,,,,sub-15,22/12/2004,2: Female,14/10/2023,002,1: right,2023_Oct_14_1105,[FINAL]_fmri_multiplication,2021.2.3,59.90156376037741
block5.xlsx,,,,,,,,,,,,,,0,0,0,0,,,,,11,0,11,0,,,,,,,,,,,,,,,,,,,,,,,,,,,,,,,,,,,,,,331.8796143569998,None,331.8796143569998,None,,,,,,,,,sub-15,22/12/2004,2: Female,14/10/2023,002,1: right,2023_Oct_14_1105,[FINAL]_fmri_multiplication,2021.2.3,59.90156376037741
block5.xlsx,,,,,,,,,,,,,,0,0,0,0,,,,,12,0,12,0,,,,,,,,,,,,,,,,,,,,,,,,,,,,,,,,,,,,,,332.87966298100037,None,332.87966298100037,None,,,,,,,,,sub-15,22/12/2004,2: Female,14/10/2023,002,1: right,2023_Oct_14_1105,[FINAL]_fmri_multiplication,2021.2.3,59.90156376037741
block5.xlsx,,,,,,,,,,,,,,0,0,0,0,,,,,13,0,13,0,,,,,,,,,,,,,,,,,,,,,,,,,,,,,,,,,,,,,,333.8796108940005,None,333.8796108940005,None,,,,,,,,,sub-15,22/12/2004,2: Female,14/10/2023,002,1: right,2023_Oct_14_1105,[FINAL]_fmri_multiplication,2021.2.3,59.90156376037741
block5.xlsx,,,,,,,,,,,,,,0,0,0,0,,,,,14,0,14,0,,,,,,,,,,,,,,,,,,,,,,,,,,,,,,,,,,,,,,334.8798010669998,None,334.8798010669998,None,,,,,,,,,sub-15,22/12/2004,2: Female,14/10/2023,002,1: right,2023_Oct_14_1105,[FINAL]_fmri_multiplication,2021.2.3,59.90156376037741
block5.xlsx,,,,,,,,,,,,,,0,0,0,0,,,,,15,0,15,0,,,,,,,,,,,,,,,,,,,,,,,,,,,,,,,,,,,,,,335.87995224599945,None,335.87995224599945,None,,,,,,,,,sub-15,22/12/2004,2: Female,14/10/2023,002,1: right,2023_Oct_14_1105,[FINAL]_fmri_multiplication,2021.2.3,59.90156376037741
block5.xlsx,,,,,,,,,,,,,,0,0,0,0,,,,,16,0,16,0,,,,,,,,,,,,,,,,,,,,,,,,,,,,,,,,,,,,,,336.8799061509999,None,336.8799061509999,None,,,,,,,,,sub-15,22/12/2004,2: Female,14/10/2023,002,1: right,2023_Oct_14_1105,[FINAL]_fmri_multiplication,2021.2.3,59.90156376037741
block5.xlsx,,,,,,,,,,,,,,0,0,0,0,,,,,17,0,17,0,,,,,,,,,,,,,,,,,,,,,,,,,,,,,,,,,,,,,,337.87953648800067,None,337.87953648800067,None,,,,,,,,,sub-15,22/12/2004,2: Female,14/10/2023,002,1: right,2023_Oct_14_1105,[FINAL]_fmri_multiplication,2021.2.3,59.90156376037741
block5.xlsx,,,,,,,,,,,,,,0,0,0,0,,,,,18,0,18,0,,,,,,,,,,,,,,,,,,,,,,,,,,,,,,,,,,,,,,338.87955119599974,None,338.87955119599974,None,,,,,,,,,sub-15,22/12/2004,2: Female,14/10/2023,002,1: right,2023_Oct_14_1105,[FINAL]_fmri_multiplication,2021.2.3,59.90156376037741
block5.xlsx,,,,,,,,,,,,,,0,0,0,0,,,,,19,0,19,0,,,,,,,,,,,,,,,,,,,,,,,,,,,,,,,,,,,,,,339.8802572029999,None,339.8802572029999,None,,,,,,,,,sub-15,22/12/2004,2: Female,14/10/2023,002,1: right,2023_Oct_14_1105,[FINAL]_fmri_multiplication,2021.2.3,59.90156376037741
block5.xlsx,,,,,,,,,,,,,,0,0,0,0,,,,,20,0,20,0,,,,,,,,,,,,,,,,,,,,,,,,,,,,,,,,,,,,,,340.8792652529992,None,340.8792652529992,None,,,,,,,,,sub-15,22/12/2004,2: Female,14/10/2023,002,1: right,2023_Oct_14_1105,[FINAL]_fmri_multiplication,2021.2.3,59.90156376037741
block5.xlsx,,,,,,,,,,,,,,0,0,0,0,,,,,21,0,21,0,,,,,,,,,,,,,,,,,,,,,,,,,,,,,,,,,,,,,,341.87933234999946,None,341.87933234999946,None,,,,,,,,,sub-15,22/12/2004,2: Female,14/10/2023,002,1: right,2023_Oct_14_1105,[FINAL]_fmri_multiplication,2021.2.3,59.90156376037741
block5.xlsx,,,,,,,,,,,,,,0,0,0,0,,,,,22,0,22,0,,,,,,,,,,,,,,,,,,,,,,,,,,,,,,,,,,,,,,342.87933867799984,None,342.87933867799984,None,,,,,,,,,sub-15,22/12/2004,2: Female,14/10/2023,002,1: right,2023_Oct_14_1105,[FINAL]_fmri_multiplication,2021.2.3,59.90156376037741
block5.xlsx,,,,,,,,,,,,,,0,0,0,0,,,,,23,0,23,0,,,,,,,,,,,,,,,,,,,,,,,,,,,,,,,,,,,,,,343.87925303799966,None,343.87925303799966,None,,,,,,,,,sub-15,22/12/2004,2: Female,14/10/2023,002,1: right,2023_Oct_14_1105,[FINAL]_fmri_multiplication,2021.2.3,59.90156376037741
block5.xlsx,,,,,,,,,,,,,,0,0,0,0,,,,,24,0,24,0,,,,,,,,,,,,,,,,,,,,,,,,,,,,,,,,,,,,,,344.8792873660004,None,344.8792873660004,None,,,,,,,,,sub-15,22/12/2004,2: Female,14/10/2023,002,1: right,2023_Oct_14_1105,[FINAL]_fmri_multiplication,2021.2.3,59.90156376037741
block5.xlsx,,,,,,,,,,,,,,0,0,0,0,,,,,25,0,25,0,,,,,,,,,,,,,,,,,,,,,,,,,,,,,,,,,,,,,,345.8784552870002,None,345.8784552870002,None,,,,,,,,,sub-15,22/12/2004,2: Female,14/10/2023,002,1: right,2023_Oct_14_1105,[FINAL]_fmri_multiplication,2021.2.3,59.90156376037741
block5.xlsx,,,,,,,,,,,,,,0,0,0,0,,,,,26,0,26,0,,,,,,,,,,,,,,,,,,,,,,,,,,,,,,,,,,,,,,346.8783117389994,None,346.8783117389994,None,,,,,,,,,sub-15,22/12/2004,2: Female,14/10/2023,002,1: right,2023_Oct_14_1105,[FINAL]_fmri_multiplication,2021.2.3,59.90156376037741
block5.xlsx,,,,,,,,,,,,,,0,0,0,0,,,,,27,0,27,0,,,,,,,,,,,,,,,,,,,,,,,,,,,,,,,,,,,,,,347.8784591179992,None,347.8784591179992,None,,,,,,,,,sub-15,22/12/2004,2: Female,14/10/2023,002,1: right,2023_Oct_14_1105,[FINAL]_fmri_multiplication,2021.2.3,59.90156376037741
block5.xlsx,,,,,,,,,,,,,,0,0,0,0,,,,,28,0,28,0,,,,,,,,,,,,,,,,,,,,,,,,,,,,,,,,,,,,,,348.87881150199973,None,348.87881150199973,None,,,,,,,,,sub-15,22/12/2004,2: Female,14/10/2023,002,1: right,2023_Oct_14_1105,[FINAL]_fmri_multiplication,2021.2.3,59.90156376037741
block5.xlsx,,,,,,,,,,,,,,0,0,0,0,,,,,29,0,29,0,,,,,,,,,,,,,,,,,,,,,,,,,,,,,,,,,,,,,,349.8787976700005,None,349.8787976700005,None,,,,,,,,,sub-15,22/12/2004,2: Female,14/10/2023,002,1: right,2023_Oct_14_1105,[FINAL]_fmri_multiplication,2021.2.3,59.90156376037741
block5.xlsx,,,,,,,,,,,,,,0,0,0,0,,,,,,,,,,,,,,,,,,,,,,,,,,,,,,,,,,,,,,,,,,,,,,,,,,,,,,,,,,sub-15,22/12/2004,2: Female,14/10/2023,002,1: right,2023_Oct_14_1105,[FINAL]_fmri_multiplication,2021.2.3,59.90156376037741
block6.xlsx,10,7.5,4.1,6 x 5,36,14,5 x 6 = 36,large-sized_low-interference,large-sized,low-interference,6,IncorrectRESP,d,0,1,1,1,0,0,0,0,,,,,,,,,,,,,350.8796440799997,None,360.9011133240001,None,361.37869851100004,None,363.3783979479995,None,364.12841655599914,None,364.37887450999915,None,364.37887450999915,None,a,0,1.0792749889988045,364.37887450999915,None,365.4782208,None,365.4782208,None,d,0.5320517889995244,365.4782208,None,366.02779052299957,None,,,,,,,,,,,,,sub-15,22/12/2004,2: Female,14/10/2023,002,1: right,2023_Oct_14_1105,[FINAL]_fmri_multiplication,2021.2.3,59.90156376037741
block6.xlsx,21.6,7.5,7.2,2 x 6,10,6,6 x 2 = 10,small-sized_low-interference,small-sized,low-interference,3,IncorrectRESP,d,0,1,1,1,0,1,1,1,,,,,,,,,,,,,,,370.12880447799944,None,370.6287727529998,None,372.62889613399966,None,373.37884513300014,None,373.6288327300008,None,373.6288327300008,None,a,0,0.7734195200009708,373.6288327300008,None,374.4283689740005,None,374.4283689740005,None,d,0.5977572240008158,374.4283689740005,None,375.04504919899955,None,,,,,,,,,,,,,sub-15,22/12/2004,2: Female,14/10/2023,002,1: right,2023_Oct_14_1105,[FINAL]_fmri_multiplication,2021.2.3,59.90156376037741
block6.xlsx,36.3,7.5,13.8,6 x 7,42,23,7 x 6 = 42,large-sized_high-interference,large-sized,high-interference,22,CorrectRESP,a,0,1,1,1,0,2,2,2,,,,,,,,,,,,,,,382.24487392099945,None,382.7450563000002,None,384.7453231969994,None,385.4951592319994,None,385.7452535299999,None,385.7452535299999,None,a,1,0.7928558950006845,385.7452535299999,None,386.5613665159999,None,386.5613665159999,None,d,0.21673414199904073,386.5613665159999,None,386.81130937799935,None,,,,,,,,,,,,,sub-15,22/12/2004,2: Female,14/10/2023,002,1: right,2023_Oct_14_1105,[FINAL]_fmri_multiplication,2021.2.3,59.90156376037741
block6.xlsx,57.6,7.5,3.7,3 x 7,21,11,7 x 3 = 21,small-sized_high-interference,small-sized,high-interference,13,CorrectRESP,a,0,1,1,1,0,3,3,3,,,,,,,,,,,,,,,400.6117322049995,None,401.11174544999994,None,403.11189186999945,None,403.86178924699925,None,404.1125362469993,None,404.1125362469993,None,d,0,0.8175909670007968,404.1125362469993,None,404.9624508039997,None,404.9624508039997,None,d,0.3836786369993206,404.9624508039997,None,405.37852246699913,None,,,,,,,,,,,,,sub-15,22/12/2004,2: Female,14/10/2023,002,1: right,2023_Oct_14_1105,[FINAL]_fmri_multiplication,2021.2.3,59.90156376037741
block6.xlsx,68.8,7.5,7.8,2 x 7,12,1,7 x 2 = 12,small-sized_low-interference,small-sized,low-interference,4,IncorrectRESP,d,0,1,1,1,0,4,4,4,,,,,,,,,,,,,,,409.0786211939994,None,409.5791852130005,None,411.57891882200056,None,412.3289087440007,None,412.5793039759992,None,412.5793039759992,None,a,0,0.6628607319998991,412.5793039759992,None,413.2620310410002,None,413.2620310410002,None,d,0.3481623669995315,413.2620310410002,None,413.6283400510001,None,,,,,,,,,,,,,sub-15,22/12/2004,2: Female,14/10/2023,002,1: right,2023_Oct_14_1105,[FINAL]_fmri_multiplication,2021.2.3,59.90156376037741
block6.xlsx,84.1,7.5,8.6,3 x 9,24,19,9 x 3 = 24,large-sized_high-interference,large-sized,high-interference,9,IncorrectRESP,d,0,1,1,1,0,5,5,5,,,,,,,,,,,,,,,421.428469,None,421.92832145300054,None,423.92857433000063,None,424.67842066499907,None,424.92862974499985,None,424.92862974499985,None,None,0,,424.92862974499985,None,426.9283474549993,None,426.9283474549993,None,a,0.3537562590008747,426.9283474549993,None,427.3118581300005,None,,,,,,,,,,,,,sub-15,22/12/2004,2: Female,14/10/2023,002,1: right,2023_Oct_14_1105,[FINAL]_fmri_multiplication,2021.2.3,59.90156376037741
block6.xlsx,100.2,7.5,3.3,4 x 6,24,10,6 x 4 = 24,small-sized_high-interference,small-sized,high-interference,12,CorrectRESP,a,0,1,1,1,0,6,6,6,,,,,,,,,,,,,,,435.9117241469994,None,436.41215355200075,None,438.41182958900026,None,439.1619473810006,None,439.4119697469996,None,439.4119697469996,None,a,1,1.3421979139984614,439.4119697469996,None,440.7783210310008,None,440.7783210310008,None,a,1.767789339999581,440.7783210310008,None,442.57882068899926,None,,,,,,,,,,,,,sub-15,22/12/2004,2: Female,14/10/2023,002,1: right,2023_Oct_14_1105,[FINAL]_fmri_multiplication,2021.2.3,59.90156376037741
block6.xlsx,111,7.5,6.3,9 x 2,16,2,2 x 9 = 16,small-sized_low-interference,small-sized,low-interference,7,IncorrectRESP,d,0,1,1,1,0,7,7,7,,,,,,,,,,,,,,,445.8787414409999,None,446.3789306309991,None,448.37891258799937,None,449.1287633899992,None,449.3789650630006,None,449.3789650630006,None,d,1,1.0712632819995633,449.3789650630006,None,450.47859930899904,None,450.47859930899904,None,a,0.7955525360011961,450.47859930899904,None,451.2947119149994,None,,,,,,,,,,,,,sub-15,22/12/2004,2: Female,14/10/2023,002,1: right,2023_Oct_14_1105,[FINAL]_fmri_multiplication,2021.2.3,59.90156376037741
block6.xlsx,124.8,7.5,3.1,6 x 6,30,13,6 x 6 = 30,large-sized_low-interference,large-sized,low-interference,4,IncorrectRESP,d,0,1,1,1,0,8,8,8,,,,,,,,,,,,,,,457.59517917499943,None,458.0947299420004,None,460.0951043620007,None,460.84509504000016,None,461.09583533099976,None,461.09583533099976,None,a,0,0.5783269439998548,461.09583533099976,None,461.6946496670007,None,461.6946496670007,None,d,0.35564316999989387,461.6946496670007,None,462.0784867069997,None,,,,,,,,,,,,,sub-15,22/12/2004,2: Female,14/10/2023,002,1: right,2023_Oct_14_1105,[FINAL]_fmri_multiplication,2021.2.3,59.90156376037741
block6.xlsx,135.4,7.5,2.7,5 x 4,16,8,4 x 5 = 16,small-sized_high-interference,small-sized,high-interference,8,IncorrectRESP,d,0,1,1,1,0,9,9,9,,,,,,,,,,,,,,,465.1784562,None,465.67837682699974,None,467.6784105759998,None,468.4282774460007,None,468.6796512860001,None,468.6796512860001,None,d,1,1.6104676569993899,468.6796512860001,None,470.31129694800075,None,470.31129694800075,None,a,1.1709048149987211,470.31129694800075,None,471.51170164799987,None,,,,,,,,,,,,,sub-15,22/12/2004,2: Female,14/10/2023,002,1: right,2023_Oct_14_1105,[FINAL]_fmri_multiplication,2021.2.3,59.90156376037741
block6.xlsx,145.6,7.5,5.1,5 x 5,25,3,5 x 5 = 25,small-sized_low-interference,small-sized,low-interference,3,CorrectRESP,a,0,1,1,1,0,10,10,10,,,,,,,,,,,,,,,474.21184252400053,None,474.7118338500004,None,476.7087025059991,None,477.4621984229998,None,477.71283398500054,None,477.71283398500054,None,d,0,1.0894254700015154,477.71283398500054,None,478.82879537400004,None,478.82879537400004,None,d,0.2774433009999484,478.82879537400004,None,479.1284568529991,None,,,,,,,,,,,,,sub-15,22/12/2004,2: Female,14/10/2023,002,1: right,2023_Oct_14_1105,[FINAL]_fmri_multiplication,2021.2.3,59.90156376037741
block6.xlsx,158.2,7.5,2.9,7 x 7,56,18,7 x 7 = 56,large-sized_low-interference,large-sized,low-interference,7,IncorrectRESP,d,0,1,1,1,0,11,11,11,,,,,,,,,,,,,,,484.22895267700005,None,484.7290467189996,None,486.72892494199914,None,487.4785275909999,None,487.728736,None,487.728736,None,a,0,1.257441486000971,487.728736,None,489.0113434340001,None,489.0113434340001,None,a,0.8867612199992436,489.0113434340001,None,489.9285172159998,None,,,,,,,,,,,,,sub-15,22/12/2004,2: Female,14/10/2023,002,1: right,2023_Oct_14_1105,[FINAL]_fmri_multiplication,2021.2.3,59.90156376037741
block6.xlsx,168.6,7.5,5.7,3 x 6,15,7,6 x 3 = 15,small-sized_high-interference,small-sized,high-interference,8,IncorrectRESP,d,0,1,1,1,0,12,12,12,,,,,,,,,,,,,,,492.8278534790006,None,493.34257298800003,None,495.3450866860003,None,496.09512200599966,None,496.3454238819995,None,496.3454238819995,None,a,0,1.0328914530000475,496.3454238819995,None,497.3954962959997,None,497.3954962959997,None,d,0.8946427999999287,497.3954962959997,None,498.3113267179997,None,,,,,,,,,,,,,sub-15,22/12/2004,2: Female,14/10/2023,002,1: right,2023_Oct_14_1105,[FINAL]_fmri_multiplication,2021.2.3,59.90156376037741
block6.xlsx,181.8,7.5,3,2 x 8,16,5,8 x 2 = 16,small-sized_low-interference,small-sized,low-interference,7,CorrectRESP,a,0,1,1,1,0,13,13,13,,,,,,,,,,,,,,,504.0112785229994,None,504.5117317,None,506.51179273100024,None,507.26140503399984,None,507.5120190969992,None,507.5120190969992,None,d,0,0.6663415879993408,507.5120190969992,None,508.1954202830002,None,508.1954202830002,None,d,0.43885845800105017,508.1954202830002,None,508.66190386999915,None,,,,,,,,,,,,,sub-15,22/12/2004,2: Female,14/10/2023,002,1: right,2023_Oct_14_1105,[FINAL]_fmri_multiplication,2021.2.3,59.90156376037741
block6.xlsx,192.3,7.5,5.9,5 x 9,45,15,9 x 5 = 45,large-sized_low-interference,large-sized,low-interference,6,CorrectRESP,a,0,1,1,1,0,14,14,14,,,,,,,,,,,,,,,511.6622442320004,None,512.1626953,None,514.1622882890006,None,514.9122005560002,None,515.1632038860007,None,515.1632038860007,None,d,0,0.8070017500012909,515.1632038860007,None,515.9948791469997,None,515.9948791469997,None,d,0.34325919299953966,515.9948791469997,None,516.3622097160005,None,,,,,,,,,,,,,sub-15,22/12/2004,2: Female,14/10/2023,002,1: right,2023_Oct_14_1105,[FINAL]_fmri_multiplication,2021.2.3,59.90156376037741
block6.xlsx,205.7,7.5,2.1,4 x 3,12,9,3 x 4 = 12,small-sized_high-interference,small-sized,high-interference,10,CorrectRESP,a,0,1,1,1,0,15,15,15,,,,,,,,,,,,,,,522.2613534350003,None,522.7616264249991,None,524.7614259410002,None,525.5119744,None,525.7621726199995,None,525.7621726199995,None,None,0,,525.7621726199995,None,527.7618357989995,None,527.7618357989995,None,a,0.17626724899855617,527.7618357989995,None,527.9616072690005,None,,,,,,,,,,,,,sub-15,22/12/2004,2: Female,14/10/2023,002,1: right,2023_Oct_14_1105,[FINAL]_fmri_multiplication,2021.2.3,59.90156376037741
block6.xlsx,215.3,7.5,9.9,7 x 8,56,22,8 x 7 = 56,large-sized_high-interference,large-sized,high-interference,9,CorrectRESP,a,0,1,1,1,0,16,16,16,,,,,,,,,,,,,,,530.0612447349995,None,530.5619118680006,None,532.5617505930004,None,533.3118635179999,None,533.5621598979997,None,533.5621598979997,None,d,0,1.6960607250002795,533.5621598979997,None,535.2780165849999,None,535.2780165849999,None,d,0.3722172599991609,535.2780165849999,None,535.6784645549997,None,,,,,,,,,,,,,sub-15,22/12/2004,2: Female,14/10/2023,002,1: right,2023_Oct_14_1105,[FINAL]_fmri_multiplication,2021.2.3,59.90156376037741
block6.xlsx,232.7,7.5,2.2,8 x 3,21,12,3 x 8 = 21,small-sized_high-interference,small-sized,high-interference,13,IncorrectRESP,d,0,1,1,1,0,17,17,17,,,,,,,,,,,,,,,545.5787399590008,None,546.0790759270003,None,548.0789505489993,None,548.8289600570006,None,549.0796451410006,None,549.0796451410006,None,None,0,,549.0796451410006,None,551.0954846059994,None,551.0954846059994,None,a,0.1946918400008144,551.0954846059994,None,551.3117020730006,None,,,,,,,,,,,,,sub-15,22/12/2004,2: Female,14/10/2023,002,1: right,2023_Oct_14_1105,[FINAL]_fmri_multiplication,2021.2.3,59.90156376037741
block6.xlsx,242.4,7.5,7.9,9 x 9,81,16,9 x 9 = 81,large-sized_low-interference,large-sized,low-interference,6,CorrectRESP,a,0,1,1,1,0,18,18,18,,,,,,,,,,,,,,,553.5121259259995,None,554.0122309159997,None,556.0119198430002,None,556.7616005679993,None,557.0119319179994,None,557.0119319179994,None,d,0,0.4622118400002364,557.0119319179994,None,557.4947478970007,None,557.4947478970007,None,d,0.395401784,557.4947478970007,None,557.9112977429995,None,,,,,,,,,,,,,sub-15,22/12/2004,2: Female,14/10/2023,002,1: right,2023_Oct_14_1105,[FINAL]_fmri_multiplication,2021.2.3,59.90156376037741
block6.xlsx,257.8,7.5,8.3,9 x 4,32,20,4 x 9 = 32,large-sized_high-interference,large-sized,high-interference,9,IncorrectRESP,d,0,1,1,1,0,19,19,19,,,,,,,,,,,,,,,565.8119213,None,566.3122339220008,None,568.3118254,None,569.0616647,None,569.3120952009995,None,569.3120952009995,None,a,0,1.4340149630006636,569.3120952009995,None,570.7783829309992,None,570.7783829309992,None,d,0.3757683019994147,570.7783829309992,None,571.1783423750003,None,,,,,,,,,,,,,sub-15,22/12/2004,2: Female,14/10/2023,002,1: right,2023_Oct_14_1105,[FINAL]_fmri_multiplication,2021.2.3,59.90156376037741
block6.xlsx,273.6,7.5,12.1,5 x 7,35,17,7 x 5 = 35,large-sized_low-interference,large-sized,low-interference,7,CorrectRESP,a,0,1,1,1,0,20,20,20,,,,,,,,,,,,,,,579.4781920999994,None,579.9785790980004,None,581.9759549310002,None,582.7292486759998,None,582.9795553679996,None,582.9795553679996,None,d,0,0.6306811169997673,582.9795553679996,None,583.6287050659994,None,583.6287050659994,None,d,0.3094222500003525,583.6287050659994,None,583.9617021659997,None,,,,,,,,,,,,,sub-15,22/12/2004,2: Female,14/10/2023,002,1: right,2023_Oct_14_1105,[FINAL]_fmri_multiplication,2021.2.3,59.90156376037741
block6.xlsx,293.2,7.5,4.1,4 x 8,28,24,8 x 4 = 28,large-sized_high-interference,large-sized,high-interference,25,IncorrectRESP,d,0,1,1,1,0,21,21,21,,,,,,,,,,,,,,,596.0618529,None,596.5624594140008,None,598.5617104489993,None,599.3118583790001,None,599.5620523670004,None,599.5620523670004,None,None,0,,599.5620523670004,None,601.5617598459994,None,601.5617598459994,None,None,,601.5617598459994,None,603.5618138040008,None,,,,,,,,,,,,,sub-15,22/12/2004,2: Female,14/10/2023,002,1: right,2023_Oct_14_1105,[FINAL]_fmri_multiplication,2021.2.3,59.90156376037741
block6.xlsx,304.8,7.5,6.7,4 x 4,16,4,4 x 4 = 16,small-sized_low-interference,small-sized,low-interference,5,CorrectRESP,a,0,1,1,1,0,22,22,22,,,,,,,,,,,,,,,607.6613265,None,608.1619496080002,None,610.1607435879996,None,610.9117602780007,None,611.1614437249991,None,611.1614437249991,None,a,1,1.2168231759987975,611.1614437249991,None,612.3955938630006,None,612.3955938630006,None,a,0.35053987199898984,612.3955938630006,None,612.7783737770005,None,,,,,,,,,,,,,sub-15,22/12/2004,2: Female,14/10/2023,002,1: right,2023_Oct_14_1105,[FINAL]_fmri_multiplication,2021.2.3,59.90156376037741
block6.xlsx,319,7.5,8.5,8 x 5,40,21,5 x 8 = 40,large-sized_high-interference,large-sized,high-interference,9,CorrectRESP,a,0,1,1,1,0,23,23,23,,,,,,,,,,,,,,,619.4788826099993,None,619.9792235200002,None,621.9789287019994,None,622.7284026939997,None,622.9796350260003,None,622.9796350260003,None,None,0,,622.9796350260003,None,624.9787596240003,None,624.9787596240003,None,None,,624.9787596240003,None,626.9786182299995,None,,,,,,,,,,,,,sub-15,22/12/2004,2: Female,14/10/2023,002,1: right,2023_Oct_14_1105,[FINAL]_fmri_multiplication,2021.2.3,59.90156376037741
block6.xlsx,,,,,,,,,,,,,,0,1,1,1,,,,,0,0,0,0,,,,,,,,,,,,,,,,,,,,,,,,,,,,,,,,,,,,,,635.4811077169998,None,635.4811077169998,None,,,,,,,,,sub-15,22/12/2004,2: Female,14/10/2023,002,1: right,2023_Oct_14_1105,[FINAL]_fmri_multiplication,2021.2.3,59.90156376037741
block6.xlsx,,,,,,,,,,,,,,0,1,1,1,,,,,1,0,1,0,,,,,,,,,,,,,,,,,,,,,,,,,,,,,,,,,,,,,,636.4961798509994,None,636.4961798509994,None,,,,,,,,,sub-15,22/12/2004,2: Female,14/10/2023,002,1: right,2023_Oct_14_1105,[FINAL]_fmri_multiplication,2021.2.3,59.90156376037741
block6.xlsx,,,,,,,,,,,,,,0,1,1,1,,,,,2,0,2,0,,,,,,,,,,,,,,,,,,,,,,,,,,,,,,,,,,,,,,637.4956690130002,None,637.4956690130002,None,,,,,,,,,sub-15,22/12/2004,2: Female,14/10/2023,002,1: right,2023_Oct_14_1105,[FINAL]_fmri_multiplication,2021.2.3,59.90156376037741
block6.xlsx,,,,,,,,,,,,,,0,1,1,1,,,,,3,0,3,0,,,,,,,,,,,,,,,,,,,,,,,,,,,,,,,,,,,,,,638.4955979280003,None,638.4955979280003,None,,,,,,,,,sub-15,22/12/2004,2: Female,14/10/2023,002,1: right,2023_Oct_14_1105,[FINAL]_fmri_multiplication,2021.2.3,59.90156376037741
block6.xlsx,,,,,,,,,,,,,,0,1,1,1,,,,,4,0,4,0,,,,,,,,,,,,,,,,,,,,,,,,,,,,,,,,,,,,,,639.4959718480004,None,639.4959718480004,None,,,,,,,,,sub-15,22/12/2004,2: Female,14/10/2023,002,1: right,2023_Oct_14_1105,[FINAL]_fmri_multiplication,2021.2.3,59.90156376037741
block6.xlsx,,,,,,,,,,,,,,0,1,1,1,,,,,5,0,5,0,,,,,,,,,,,,,,,,,,,,,,,,,,,,,,,,,,,,,,640.4962816499992,None,640.4962816499992,None,,,,,,,,,sub-15,22/12/2004,2: Female,14/10/2023,002,1: right,2023_Oct_14_1105,[FINAL]_fmri_multiplication,2021.2.3,59.90156376037741
block6.xlsx,,,,,,,,,,,,,,0,1,1,1,,,,,6,0,6,0,,,,,,,,,,,,,,,,,,,,,,,,,,,,,,,,,,,,,,641.4957735919998,None,641.4957735919998,None,,,,,,,,,sub-15,22/12/2004,2: Female,14/10/2023,002,1: right,2023_Oct_14_1105,[FINAL]_fmri_multiplication,2021.2.3,59.90156376037741
block6.xlsx,,,,,,,,,,,,,,0,1,1,1,,,,,7,0,7,0,,,,,,,,,,,,,,,,,,,,,,,,,,,,,,,,,,,,,,642.4956877530003,None,642.4956877530003,None,,,,,,,,,sub-15,22/12/2004,2: Female,14/10/2023,002,1: right,2023_Oct_14_1105,[FINAL]_fmri_multiplication,2021.2.3,59.90156376037741
block6.xlsx,,,,,,,,,,,,,,0,1,1,1,,,,,8,0,8,0,,,,,,,,,,,,,,,,,,,,,,,,,,,,,,,,,,,,,,643.4957841640007,None,643.4957841640007,None,,,,,,,,,sub-15,22/12/2004,2: Female,14/10/2023,002,1: right,2023_Oct_14_1105,[FINAL]_fmri_multiplication,2021.2.3,59.90156376037741
block6.xlsx,,,,,,,,,,,,,,0,1,1,1,,,,,9,0,9,0,,,,,,,,,,,,,,,,,,,,,,,,,,,,,,,,,,,,,,644.4954078339997,None,644.4954078339997,None,,,,,,,,,sub-15,22/12/2004,2: Female,14/10/2023,002,1: right,2023_Oct_14_1105,[FINAL]_fmri_multiplication,2021.2.3,59.90156376037741
block6.xlsx,,,,,,,,,,,,,,0,1,1,1,,,,,10,0,10,0,,,,,,,,,,,,,,,,,,,,,,,,,,,,,,,,,,,,,,645.4942306649991,None,645.4942306649991,None,,,,,,,,,sub-15,22/12/2004,2: Female,14/10/2023,002,1: right,2023_Oct_14_1105,[FINAL]_fmri_multiplication,2021.2.3,59.90156376037741
block6.xlsx,,,,,,,,,,,,,,0,1,1,1,,,,,11,0,11,0,,,,,,,,,,,,,,,,,,,,,,,,,,,,,,,,,,,,,,646.4975244380003,None,646.4975244380003,None,,,,,,,,,sub-15,22/12/2004,2: Female,14/10/2023,002,1: right,2023_Oct_14_1105,[FINAL]_fmri_multiplication,2021.2.3,59.90156376037741
block6.xlsx,,,,,,,,,,,,,,0,1,1,1,,,,,12,0,12,0,,,,,,,,,,,,,,,,,,,,,,,,,,,,,,,,,,,,,,647.4956381920001,None,647.4956381920001,None,,,,,,,,,sub-15,22/12/2004,2: Female,14/10/2023,002,1: right,2023_Oct_14_1105,[FINAL]_fmri_multiplication,2021.2.3,59.90156376037741
block6.xlsx,,,,,,,,,,,,,,0,1,1,1,,,,,13,0,13,0,,,,,,,,,,,,,,,,,,,,,,,,,,,,,,,,,,,,,,648.4958695299993,None,648.4958695299993,None,,,,,,,,,sub-15,22/12/2004,2: Female,14/10/2023,002,1: right,2023_Oct_14_1105,[FINAL]_fmri_multiplication,2021.2.3,59.90156376037741
block6.xlsx,,,,,,,,,,,,,,0,1,1,1,,,,,14,0,14,0,,,,,,,,,,,,,,,,,,,,,,,,,,,,,,,,,,,,,,649.4955349569991,None,649.4955349569991,None,,,,,,,,,sub-15,22/12/2004,2: Female,14/10/2023,002,1: right,2023_Oct_14_1105,[FINAL]_fmri_multiplication,2021.2.3,59.90156376037741
block6.xlsx,,,,,,,,,,,,,,0,1,1,1,,,,,15,0,15,0,,,,,,,,,,,,,,,,,,,,,,,,,,,,,,,,,,,,,,650.4960763719992,None,650.4960763719992,None,,,,,,,,,sub-15,22/12/2004,2: Female,14/10/2023,002,1: right,2023_Oct_14_1105,[FINAL]_fmri_multiplication,2021.2.3,59.90156376037741
block6.xlsx,,,,,,,,,,,,,,0,1,1,1,,,,,16,0,16,0,,,,,,,,,,,,,,,,,,,,,,,,,,,,,,,,,,,,,,651.4964402139994,None,651.4964402139994,None,,,,,,,,,sub-15,22/12/2004,2: Female,14/10/2023,002,1: right,2023_Oct_14_1105,[FINAL]_fmri_multiplication,2021.2.3,59.90156376037741
block6.xlsx,,,,,,,,,,,,,,0,1,1,1,,,,,17,0,17,0,,,,,,,,,,,,,,,,,,,,,,,,,,,,,,,,,,,,,,652.4865854790005,None,652.4865854790005,None,,,,,,,,,sub-15,22/12/2004,2: Female,14/10/2023,002,1: right,2023_Oct_14_1105,[FINAL]_fmri_multiplication,2021.2.3,59.90156376037741
block6.xlsx,,,,,,,,,,,,,,0,1,1,1,,,,,18,0,18,0,,,,,,,,,,,,,,,,,,,,,,,,,,,,,,,,,,,,,,653.4970613,None,653.4970613,None,,,,,,,,,sub-15,22/12/2004,2: Female,14/10/2023,002,1: right,2023_Oct_14_1105,[FINAL]_fmri_multiplication,2021.2.3,59.90156376037741
block6.xlsx,,,,,,,,,,,,,,0,1,1,1,,,,,19,0,19,0,,,,,,,,,,,,,,,,,,,,,,,,,,,,,,,,,,,,,,654.4959975389993,None,654.4959975389993,None,,,,,,,,,sub-15,22/12/2004,2: Female,14/10/2023,002,1: right,2023_Oct_14_1105,[FINAL]_fmri_multiplication,2021.2.3,59.90156376037741
block6.xlsx,,,,,,,,,,,,,,0,1,1,1,,,,,20,0,20,0,,,,,,,,,,,,,,,,,,,,,,,,,,,,,,,,,,,,,,655.4961137909995,None,655.4961137909995,None,,,,,,,,,sub-15,22/12/2004,2: Female,14/10/2023,002,1: right,2023_Oct_14_1105,[FINAL]_fmri_multiplication,2021.2.3,59.90156376037741
block6.xlsx,,,,,,,,,,,,,,0,1,1,1,,,,,21,0,21,0,,,,,,,,,,,,,,,,,,,,,,,,,,,,,,,,,,,,,,656.4965402470007,None,656.4965402470007,None,,,,,,,,,sub-15,22/12/2004,2: Female,14/10/2023,002,1: right,2023_Oct_14_1105,[FINAL]_fmri_multiplication,2021.2.3,59.90156376037741
block6.xlsx,,,,,,,,,,,,,,0,1,1,1,,,,,22,0,22,0,,,,,,,,,,,,,,,,,,,,,,,,,,,,,,,,,,,,,,657.4960845969999,None,657.4960845969999,None,,,,,,,,,sub-15,22/12/2004,2: Female,14/10/2023,002,1: right,2023_Oct_14_1105,[FINAL]_fmri_multiplication,2021.2.3,59.90156376037741
block6.xlsx,,,,,,,,,,,,,,0,1,1,1,,,,,23,0,23,0,,,,,,,,,,,,,,,,,,,,,,,,,,,,,,,,,,,,,,658.4960674409995,None,658.4960674409995,None,,,,,,,,,sub-15,22/12/2004,2: Female,14/10/2023,002,1: right,2023_Oct_14_1105,[FINAL]_fmri_multiplication,2021.2.3,59.90156376037741
block6.xlsx,,,,,,,,,,,,,,0,1,1,1,,,,,24,0,24,0,,,,,,,,,,,,,,,,,,,,,,,,,,,,,,,,,,,,,,659.4961384609996,None,659.4961384609996,None,,,,,,,,,sub-15,22/12/2004,2: Female,14/10/2023,002,1: right,2023_Oct_14_1105,[FINAL]_fmri_multiplication,2021.2.3,59.90156376037741
block6.xlsx,,,,,,,,,,,,,,0,1,1,1,,,,,25,0,25,0,,,,,,,,,,,,,,,,,,,,,,,,,,,,,,,,,,,,,,660.4959778810007,None,660.4959778810007,None,,,,,,,,,sub-15,22/12/2004,2: Female,14/10/2023,002,1: right,2023_Oct_14_1105,[FINAL]_fmri_multiplication,2021.2.3,59.90156376037741
block6.xlsx,,,,,,,,,,,,,,0,1,1,1,,,,,26,0,26,0,,,,,,,,,,,,,,,,,,,,,,,,,,,,,,,,,,,,,,661.4950742330002,None,661.4950742330002,None,,,,,,,,,sub-15,22/12/2004,2: Female,14/10/2023,002,1: right,2023_Oct_14_1105,[FINAL]_fmri_multiplication,2021.2.3,59.90156376037741
block6.xlsx,,,,,,,,,,,,,,0,1,1,1,,,,,27,0,27,0,,,,,,,,,,,,,,,,,,,,,,,,,,,,,,,,,,,,,,662.4953900879991,None,662.4953900879991,None,,,,,,,,,sub-15,22/12/2004,2: Female,14/10/2023,002,1: right,2023_Oct_14_1105,[FINAL]_fmri_multiplication,2021.2.3,59.90156376037741
block6.xlsx,,,,,,,,,,,,,,0,1,1,1,,,,,28,0,28,0,,,,,,,,,,,,,,,,,,,,,,,,,,,,,,,,,,,,,,663.4953497700008,None,663.4953497700008,None,,,,,,,,,sub-15,22/12/2004,2: Female,14/10/2023,002,1: right,2023_Oct_14_1105,[FINAL]_fmri_multiplication,2021.2.3,59.90156376037741
block6.xlsx,,,,,,,,,,,,,,0,1,1,1,,,,,29,0,29,0,,,,,,,,,,,,,,,,,,,,,,,,,,,,,,,,,,,,,,664.4949433059992,None,664.4949433059992,None,,,,,,,,,sub-15,22/12/2004,2: Female,14/10/2023,002,1: right,2023_Oct_14_1105,[FINAL]_fmri_multiplication,2021.2.3,59.90156376037741
block6.xlsx,,,,,,,,,,,,,,0,1,1,1,,,,,,,,,,,,,,,,,,,,,,,,,,,,,,,,,,,,,,,,,,,,,,,,,,,,,,,,,,sub-15,22/12/2004,2: Female,14/10/2023,002,1: right,2023_Oct_14_1105,[FINAL]_fmri_multiplication,2021.2.3,59.90156376037741
block7.xlsx,10,7.5,4,2 x 7,14,1,7 x 2 = 14,small-sized_low-interference,small-sized,low-interference,4,CorrectRESP,a,0,2,2,2,0,0,0,0,,,,,,,,,,,,,665.4957711360003,None,675.5181865369996,None,675.9949696149997,None,677.9948053190001,None,678.7450420709993,None,678.9951866119991,None,678.9951866119991,None,None,0,,678.9951866119991,None,680.9945537709991,None,680.9945537709991,None,None,,680.9945537709991,None,682.9950360010007,None,,,,,,,,,,,,,sub-15,22/12/2004,2: Female,14/10/2023,002,1: right,2023_Oct_14_1105,[FINAL]_fmri_multiplication,2021.2.3,59.90156376037741
block7.xlsx,21.5,7.5,14.2,3 x 6,15,7,6 x 3 = 15,small-sized_high-interference,small-sized,high-interference,8,IncorrectRESP,d,0,2,2,2,0,1,1,1,,,,,,,,,,,,,,,686.9953830779996,None,687.4953652099994,None,689.4956021840007,None,690.2454181869998,None,690.4959253979996,None,690.4959253979996,None,a,0,0.8342023819986935,690.4959253979996,None,691.3627281280005,None,691.3627281280005,None,d,0.3193788709995715,691.3627281280005,None,691.7123025199999,None,,,,,,,,,,,,,sub-15,22/12/2004,2: Female,14/10/2023,002,1: right,2023_Oct_14_1105,[FINAL]_fmri_multiplication,2021.2.3,59.90156376037741
block7.xlsx,43.2,7.5,5.1,2 x 7,12,1,7 x 2 = 12,small-sized_low-interference,small-sized,low-interference,4,IncorrectRESP,d,0,2,2,2,0,2,2,2,,,,,,,,,,,,,,,705.9118328519999,None,706.4113178389998,None,708.4113557919991,None,709.1617388239993,None,709.4127645,None,709.4127645,None,None,0,,709.4127645,None,711.4281787389991,None,711.4281787389991,None,a,0.9019345050000993,711.4281787389991,None,712.3616272309991,None,,,,,,,,,,,,,sub-15,22/12/2004,2: Female,14/10/2023,002,1: right,2023_Oct_14_1105,[FINAL]_fmri_multiplication,2021.2.3,59.90156376037741
block7.xlsx,55.8,7.5,3.4,5 x 9,40,15,9 x 5 = 40,large-sized_low-interference,large-sized,low-interference,6,IncorrectRESP,d,0,2,2,2,0,3,3,3,,,,,,,,,,,,,,,717.4617832130007,None,717.9622588679995,None,719.9619159550002,None,720.7119975810001,None,720.9625485710003,None,720.9625485710003,None,a,0,1.455673612001192,720.9625485710003,None,722.4452706569991,None,722.4452706569991,None,d,0.7329441670008237,722.4452706569991,None,723.1955405930003,None,,,,,,,,,,,,,sub-15,22/12/2004,2: Female,14/10/2023,002,1: right,2023_Oct_14_1105,[FINAL]_fmri_multiplication,2021.2.3,59.90156376037741
block7.xlsx,66.7,7.5,2.9,5 x 5,30,3,5 x 5 = 30,small-sized_low-interference,small-sized,low-interference,3,IncorrectRESP,d,0,2,2,2,0,4,4,4,,,,,,,,,,,,,,,726.5954684299995,None,727.0960871469997,None,729.1116266179997,None,729.8623117059997,None,730.1125534839994,None,730.1125534839994,None,a,0,0.7855481959995814,730.1125534839994,None,730.9287878439991,None,730.9287878439991,None,d,0.5133970509996288,730.9287878439991,None,731.4614607399999,None,,,,,,,,,,,,,sub-15,22/12/2004,2: Female,14/10/2023,002,1: right,2023_Oct_14_1105,[FINAL]_fmri_multiplication,2021.2.3,59.90156376037741
block7.xlsx,77.1,7.5,13.9,5 x 7,40,17,7 x 5 = 40,large-sized_low-interference,large-sized,low-interference,7,IncorrectRESP,d,0,2,2,2,0,5,5,5,,,,,,,,,,,,,,,734.3617602449995,None,734.8616694110005,None,736.8618437789992,None,737.6118005810004,None,737.8628069749993,None,737.8628069749993,None,None,0,,737.8628069749993,None,739.8783127400002,None,739.8783127400002,None,None,,739.8783127400002,None,741.8784169209994,None,,,,,,,,,,,,,sub-15,22/12/2004,2: Female,14/10/2023,002,1: right,2023_Oct_14_1105,[FINAL]_fmri_multiplication,2021.2.3,59.90156376037741
block7.xlsx,98.5,7.5,2.6,2 x 8,16,5,8 x 2 = 16,small-sized_low-interference,small-sized,low-interference,7,CorrectRESP,a,0,2,2,2,0,6,6,6,,,,,,,,,,,,,,,755.7784515,None,756.2786172039996,None,758.2771441679997,None,759.0287742809996,None,759.2790176910003,None,759.2790176910003,None,None,0,,759.2790176910003,None,761.2787936,None,761.2787936,None,a,1.5394653559997096,761.2787936,None,762.845304,None,,,,,,,,,,,,,sub-15,22/12/2004,2: Female,14/10/2023,002,1: right,2023_Oct_14_1105,[FINAL]_fmri_multiplication,2021.2.3,59.90156376037741
block7.xlsx,108.6,7.5,11.6,3 x 6,18,7,6 x 3 = 18,small-sized_high-interference,small-sized,high-interference,8,CorrectRESP,a,0,2,2,2,0,7,7,7,,,,,,,,,,,,,,,765.4450187029997,None,765.9450902560002,None,767.9451848,None,768.6950925559995,None,768.9452102199994,None,768.9452102199994,None,a,1,0.5929190570004721,768.9452102199994,None,769.5613675889999,None,769.5613675889999,None,a,1.0568583420008508,769.5613675889999,None,770.6442991570002,None,,,,,,,,,,,,,sub-15,22/12/2004,2: Female,14/10/2023,002,1: right,2023_Oct_14_1105,[FINAL]_fmri_multiplication,2021.2.3,59.90156376037741
block7.xlsx,127.7,7.5,5,5 x 5,25,3,5 x 5 = 25,small-sized_low-interference,small-sized,low-interference,3,CorrectRESP,a,0,2,2,2,0,8,8,8,,,,,,,,,,,,,,,782.2449733729991,None,782.7450976119999,None,784.7451404509993,None,785.4950373810007,None,785.7458894770007,None,785.7458894770007,None,d,0,0.4082545099990966,785.7458894770007,None,786.1779386790004,None,786.1779386790004,None,d,0.3361712580008316,786.1779386790004,None,786.5445693269994,None,,,,,,,,,,,,,sub-15,22/12/2004,2: Female,14/10/2023,002,1: right,2023_Oct_14_1105,[FINAL]_fmri_multiplication,2021.2.3,59.90156376037741
block7.xlsx,140.2,7.5,2.8,6 x 6,36,13,6 x 6 = 36,large-sized_low-interference,large-sized,low-interference,4,CorrectRESP,a,0,2,2,2,0,9,9,9,,,,,,,,,,,,,,,791.5453039879994,None,792.0454293759994,None,794.0454904,None,794.7954750959998,None,795.0457090740001,None,795.0457090740001,None,d,0,0.38052679099928355,795.0457090740001,None,795.4451386359997,None,795.4451386359997,None,d,0.3171041840014368,795.4451386359997,None,795.7786688939996,None,,,,,,,,,,,,,sub-15,22/12/2004,2: Female,14/10/2023,002,1: right,2023_Oct_14_1105,[FINAL]_fmri_multiplication,2021.2.3,59.90156376037741
block7.xlsx,150.5,7.5,2,3 x 7,21,11,7 x 3 = 21,small-sized_high-interference,small-sized,high-interference,13,CorrectRESP,a,0,2,2,2,0,10,10,10,,,,,,,,,,,,,,,798.5788158800005,None,799.0786747000002,None,801.0786320799998,None,801.8286298080002,None,802.0784398359992,None,802.0784398359992,None,None,0,,802.0784398359992,None,804.0784048740006,None,804.0784048740006,None,None,,804.0784048740006,None,806.0781230819994,None,,,,,,,,,,,,,sub-15,22/12/2004,2: Female,14/10/2023,002,1: right,2023_Oct_14_1105,[FINAL]_fmri_multiplication,2021.2.3,59.90156376037741
block7.xlsx,160,7.5,2.7,6 x 7,48,23,7 x 6 = 48,large-sized_high-interference,large-sized,high-interference,22,IncorrectRESP,d,0,2,2,2,0,11,11,11,,,,,,,,,,,,,,,808.0779481219997,None,808.5785919369991,None,810.5784335890003,None,811.3284670720004,None,811.5791084419998,None,811.5791084419998,None,None,0,,811.5791084419998,None,813.5783651479996,None,813.5783651479996,None,a,0.14380827900095028,813.5783651479996,None,813.7446546690007,None,,,,,,,,,,,,,sub-15,22/12/2004,2: Female,14/10/2023,002,1: right,2023_Oct_14_1105,[FINAL]_fmri_multiplication,2021.2.3,59.90156376037741
block7.xlsx,170.2,7.5,7,5 x 7,35,17,7 x 5 = 35,large-sized_low-interference,large-sized,low-interference,7,CorrectRESP,a,0,2,2,2,0,12,12,12,,,,,,,,,,,,,,,816.4447029559997,None,816.9455410539995,None,818.9445166669993,None,819.6950747360006,None,819.9448421929992,None,819.9448421929992,None,d,0,0.8413706129995262,819.9448421929992,None,820.8110455419992,None,820.8110455419992,None,d,0.3591786819997651,820.8110455419992,None,821.1946491109993,None,,,,,,,,,,,,,sub-15,22/12/2004,2: Female,14/10/2023,002,1: right,2023_Oct_14_1105,[FINAL]_fmri_multiplication,2021.2.3,59.90156376037741
block7.xlsx,184.7,7.5,3,3 x 9,27,19,9 x 3 = 27,large-sized_high-interference,large-sized,high-interference,9,CorrectRESP,a,0,2,2,2,0,13,13,13,,,,,,,,,,,,,,,828.2097439299996,None,828.7121044329997,None,830.7122399349992,None,831.4620853969991,None,831.7126007099996,None,831.7126007099996,None,None,0,,831.7126007099996,None,833.7121288800008,None,833.7121288800008,None,None,,833.7121288800008,None,835.7113815379998,None,,,,,,,,,,,,,sub-15,22/12/2004,2: Female,14/10/2023,002,1: right,2023_Oct_14_1105,[FINAL]_fmri_multiplication,2021.2.3,59.90156376037741
block7.xlsx,195.2,7.5,7.1,4 x 3,15,9,3 x 4 = 15,small-sized_high-interference,small-sized,high-interference,10,IncorrectRESP,d,0,2,2,2,0,14,14,14,,,,,,,,,,,,,,,838.7119372270008,None,839.2116423440002,None,841.2116929429994,None,841.9619169,None,842.2118363,None,842.2118363,None,a,0,0.6782888349989662,842.2118363,None,842.9113119440008,None,842.9113119440008,None,d,0.7068671950000862,842.9113119440008,None,843.6447934370008,None,,,,,,,,,,,,,sub-15,22/12/2004,2: Female,14/10/2023,002,1: right,2023_Oct_14_1105,[FINAL]_fmri_multiplication,2021.2.3,59.90156376037741
block7.xlsx,209.8,7.5,3.9,2 x 8,18,5,8 x 2 = 18,small-sized_low-interference,small-sized,low-interference,7,IncorrectRESP,d,0,2,2,2,0,15,15,15,,,,,,,,,,,,,,,850.7450598089999,None,851.2447802410006,None,853.2448130579996,None,853.9948380949991,None,854.2449019779997,None,854.2449019779997,None,None,0,,854.2449019779997,None,856.2449582219997,None,856.2449582219997,None,None,,856.2449582219997,None,858.2444887059992,None,,,,,,,,,,,,,sub-15,22/12/2004,2: Female,14/10/2023,002,1: right,2023_Oct_14_1105,[FINAL]_fmri_multiplication,2021.2.3,59.90156376037741
block7.xlsx,221.2,7.5,13.2,8 x 5,40,21,5 x 8 = 40,large-sized_high-interference,large-sized,high-interference,9,CorrectRESP,a,0,2,2,2,0,16,16,16,,,,,,,,,,,,,,,862.1453613499998,None,862.6459745020002,None,864.6455694239994,None,865.3953416889999,None,865.6462635190001,None,865.6462635190001,None,None,0,,865.6462635190001,None,867.6449890709991,None,867.6449890709991,None,None,,867.6449890709991,None,869.6452942979995,None,,,,,,,,,,,,,sub-15,22/12/2004,2: Female,14/10/2023,002,1: right,2023_Oct_14_1105,[FINAL]_fmri_multiplication,2021.2.3,59.90156376037741
block7.xlsx,241.9,7.5,8.7,3 x 7,24,11,7 x 3 = 24,small-sized_high-interference,small-sized,high-interference,13,IncorrectRESP,d,0,2,2,2,0,17,17,17,,,,,,,,,,,,,,,882.8448217379992,None,883.3454641450007,None,885.3450857480002,None,886.0946568769996,None,886.3453400849994,None,886.3453400849994,None,None,0,,886.3453400849994,None,888.3446419489992,None,888.3446419489992,None,None,,888.3446419489992,None,890.3450659669998,None,,,,,,,,,,,,,sub-15,22/12/2004,2: Female,14/10/2023,002,1: right,2023_Oct_14_1105,[FINAL]_fmri_multiplication,2021.2.3,59.90156376037741
block7.xlsx,258.1,7.5,8.1,6 x 6,30,13,6 x 6 = 30,large-sized_low-interference,large-sized,low-interference,4,IncorrectRESP,d,0,2,2,2,0,18,18,18,,,,,,,,,,,,,,,899.0455786139992,None,899.5457394780005,None,901.5457143,None,902.2956279360005,None,902.5463706899991,None,902.5463706899991,None,a,0,0.6077722420013743,902.5463706899991,None,903.1783556150003,None,903.1783556150003,None,d,0.7438031889996637,903.1783556150003,None,903.9451411059999,None,,,,,,,,,,,,,sub-15,22/12/2004,2: Female,14/10/2023,002,1: right,2023_Oct_14_1105,[FINAL]_fmri_multiplication,2021.2.3,59.90156376037741
block7.xlsx,273.7,7.5,8.2,8 x 5,45,21,5 x 8 = 45,large-sized_high-interference,large-sized,high-interference,9,IncorrectRESP,d,0,2,2,2,0,19,19,19,,,,,,,,,,,,,,,912.0451588289998,None,912.5463996210001,None,914.5618657129999,None,915.3119016750006,None,915.5621207389995,None,915.5621207389995,None,a,0,0.5840167149999616,915.5621207389995,None,916.1784004050005,None,916.1784004050005,None,d,1.1918198790008319,916.1784004050005,None,917.3945855870006,None,,,,,,,,,,,,,sub-15,22/12/2004,2: Female,14/10/2023,002,1: right,2023_Oct_14_1105,[FINAL]_fmri_multiplication,2021.2.3,59.90156376037741
block7.xlsx,289.4,7.5,5.5,4 x 3,12,9,3 x 4 = 12,small-sized_high-interference,small-sized,high-interference,10,CorrectRESP,a,0,2,2,2,0,20,20,20,,,,,,,,,,,,,,,925.5946559259992,None,926.0955285439995,None,928.0951206459995,None,928.8448588720003,None,929.0957017630008,None,929.0957017630008,None,a,1,1.2424252799992246,929.0957017630008,None,930.3615133969997,None,930.3615133969997,None,a,0.30474201700053527,930.3615133969997,None,930.6952238209997,None,,,,,,,,,,,,,sub-15,22/12/2004,2: Female,14/10/2023,002,1: right,2023_Oct_14_1105,[FINAL]_fmri_multiplication,2021.2.3,59.90156376037741
block7.xlsx,302.4,7.5,4.8,3 x 9,24,19,9 x 3 = 24,large-sized_high-interference,large-sized,high-interference,9,IncorrectRESP,d,0,2,2,2,0,21,21,21,,,,,,,,,,,,,,,936.1954859769994,None,936.6958227809992,None,938.6955159,None,939.4454897369997,None,939.6956515849997,None,939.6956515849997,None,None,0,,939.6956515849997,None,941.6954422700001,None,941.6954422700001,None,None,,941.6954422700001,None,943.6952164300001,None,,,,,,,,,,,,,sub-15,22/12/2004,2: Female,14/10/2023,002,1: right,2023_Oct_14_1105,[FINAL]_fmri_multiplication,2021.2.3,59.90156376037741
block7.xlsx,314.7,7.5,2.5,5 x 9,45,15,9 x 5 = 45,large-sized_low-interference,large-sized,low-interference,6,CorrectRESP,a,0,2,2,2,0,22,22,22,,,,,,,,,,,,,,,948.4951360539999,None,948.9954401319992,None,950.9950970940008,None,951.7450878609998,None,951.9954963630007,None,951.9954963630007,None,d,0,1.2467072420004115,951.9954963630007,None,953.2613127029999,None,953.2613127029999,None,d,1.5809521290011617,953.2613127029999,None,954.8618051550002,None,,,,,,,,,,,,,sub-15,22/12/2004,2: Female,14/10/2023,002,1: right,2023_Oct_14_1105,[FINAL]_fmri_multiplication,2021.2.3,59.90156376037741
block7.xlsx,324.7,7.5,2.8,6 x 7,42,23,7 x 6 = 42,large-sized_high-interference,large-sized,high-interference,22,CorrectRESP,a,0,2,2,2,0,23,23,23,,,,,,,,,,,,,,,957.3618069029999,None,957.8622351489994,None,959.8617440449998,None,960.6114937429993,None,960.8618530149997,None,960.8618530149997,None,a,1,1.5402725350013498,960.8618530149997,None,962.4277948050003,None,962.4277948050003,None,a,0.3343399710010999,962.4277948050003,None,962.7949229040005,None,,,,,,,,,,,,,sub-15,22/12/2004,2: Female,14/10/2023,002,1: right,2023_Oct_14_1105,[FINAL]_fmri_multiplication,2021.2.3,59.90156376037741
block7.xlsx,,,,,,,,,,,,,,0,2,2,2,,,,,0,0,0,0,,,,,,,,,,,,,,,,,,,,,,,,,,,,,,,,,,,,,,965.596001,None,965.596001,None,,,,,,,,,sub-15,22/12/2004,2: Female,14/10/2023,002,1: right,2023_Oct_14_1105,[FINAL]_fmri_multiplication,2021.2.3,59.90156376037741
block7.xlsx,,,,,,,,,,,,,,0,2,2,2,,,,,1,0,1,0,,,,,,,,,,,,,,,,,,,,,,,,,,,,,,,,,,,,,,966.5958371199995,966.5958371199995,966.5958371199995,966.5958371199995,,,,,,,,,sub-15,22/12/2004,2: Female,14/10/2023,002,1: right,2023_Oct_14_1105,[FINAL]_fmri_multiplication,2021.2.3,59.90156376037741
block7.xlsx,,,,,,,,,,,,,,0,2,2,2,,,,,2,0,2,0,,,,,,,,,,,,,,,,,,,,,,,,,,,,,,,,,,,,,,967.5960484780007,967.5960484780007,967.5960484780007,967.5960484780007,,,,,,,,,sub-15,22/12/2004,2: Female,14/10/2023,002,1: right,2023_Oct_14_1105,[FINAL]_fmri_multiplication,2021.2.3,59.90156376037741
block7.xlsx,,,,,,,,,,,,,,0,2,2,2,,,,,3,0,3,0,,,,,,,,,,,,,,,,,,,,,,,,,,,,,,,,,,,,,,968.6118533400004,None,968.6118533400004,None,,,,,,,,,sub-15,22/12/2004,2: Female,14/10/2023,002,1: right,2023_Oct_14_1105,[FINAL]_fmri_multiplication,2021.2.3,59.90156376037741
block7.xlsx,,,,,,,,,,,,,,0,2,2,2,,,,,4,0,4,0,,,,,,,,,,,,,,,,,,,,,,,,,,,,,,,,,,,,,,969.6085639419998,None,969.6085639419998,None,,,,,,,,,sub-15,22/12/2004,2: Female,14/10/2023,002,1: right,2023_Oct_14_1105,[FINAL]_fmri_multiplication,2021.2.3,59.90156376037741
block7.xlsx,,,,,,,,,,,,,,0,2,2,2,,,,,5,0,5,0,,,,,,,,,,,,,,,,,,,,,,,,,,,,,,,,,,,,,,970.6129994999992,None,970.6129994999992,None,,,,,,,,,sub-15,22/12/2004,2: Female,14/10/2023,002,1: right,2023_Oct_14_1105,[FINAL]_fmri_multiplication,2021.2.3,59.90156376037741
block7.xlsx,,,,,,,,,,,,,,0,2,2,2,,,,,6,0,6,0,,,,,,,,,,,,,,,,,,,,,,,,,,,,,,,,,,,,,,971.6149317920008,None,971.6149317920008,None,,,,,,,,,sub-15,22/12/2004,2: Female,14/10/2023,002,1: right,2023_Oct_14_1105,[FINAL]_fmri_multiplication,2021.2.3,59.90156376037741
block7.xlsx,,,,,,,,,,,,,,0,2,2,2,,,,,7,0,7,0,,,,,,,,,,,,,,,,,,,,,,,,,,,,,,,,,,,,,,972.6150969339997,None,972.6150969339997,None,,,,,,,,,sub-15,22/12/2004,2: Female,14/10/2023,002,1: right,2023_Oct_14_1105,[FINAL]_fmri_multiplication,2021.2.3,59.90156376037741
block7.xlsx,,,,,,,,,,,,,,0,2,2,2,,,,,8,0,8,0,,,,,,,,,,,,,,,,,,,,,,,,,,,,,,,,,,,,,,973.6135022369999,None,973.6135022369999,None,,,,,,,,,sub-15,22/12/2004,2: Female,14/10/2023,002,1: right,2023_Oct_14_1105,[FINAL]_fmri_multiplication,2021.2.3,59.90156376037741
block7.xlsx,,,,,,,,,,,,,,0,2,2,2,,,,,9,0,9,0,,,,,,,,,,,,,,,,,,,,,,,,,,,,,,,,,,,,,,974.6133161189991,None,974.6133161189991,None,,,,,,,,,sub-15,22/12/2004,2: Female,14/10/2023,002,1: right,2023_Oct_14_1105,[FINAL]_fmri_multiplication,2021.2.3,59.90156376037741
block7.xlsx,,,,,,,,,,,,,,0,2,2,2,,,,,10,0,10,0,,,,,,,,,,,,,,,,,,,,,,,,,,,,,,,,,,,,,,975.6134766270006,None,975.6134766270006,None,,,,,,,,,sub-15,22/12/2004,2: Female,14/10/2023,002,1: right,2023_Oct_14_1105,[FINAL]_fmri_multiplication,2021.2.3,59.90156376037741
block7.xlsx,,,,,,,,,,,,,,0,2,2,2,,,,,11,0,11,0,,,,,,,,,,,,,,,,,,,,,,,,,,,,,,,,,,,,,,976.6127838510001,None,976.6127838510001,None,,,,,,,,,sub-15,22/12/2004,2: Female,14/10/2023,002,1: right,2023_Oct_14_1105,[FINAL]_fmri_multiplication,2021.2.3,59.90156376037741
block7.xlsx,,,,,,,,,,,,,,0,2,2,2,,,,,12,0,12,0,,,,,,,,,,,,,,,,,,,,,,,,,,,,,,,,,,,,,,977.6118226920007,None,977.6118226920007,None,,,,,,,,,sub-15,22/12/2004,2: Female,14/10/2023,002,1: right,2023_Oct_14_1105,[FINAL]_fmri_multiplication,2021.2.3,59.90156376037741
block7.xlsx,,,,,,,,,,,,,,0,2,2,2,,,,,13,0,13,0,,,,,,,,,,,,,,,,,,,,,,,,,,,,,,,,,,,,,,978.6126890310006,None,978.6126890310006,None,,,,,,,,,sub-15,22/12/2004,2: Female,14/10/2023,002,1: right,2023_Oct_14_1105,[FINAL]_fmri_multiplication,2021.2.3,59.90156376037741
block7.xlsx,,,,,,,,,,,,,,0,2,2,2,,,,,14,0,14,0,,,,,,,,,,,,,,,,,,,,,,,,,,,,,,,,,,,,,,979.6117143169995,None,979.6117143169995,None,,,,,,,,,sub-15,22/12/2004,2: Female,14/10/2023,002,1: right,2023_Oct_14_1105,[FINAL]_fmri_multiplication,2021.2.3,59.90156376037741
block7.xlsx,,,,,,,,,,,,,,0,2,2,2,,,,,15,0,15,0,,,,,,,,,,,,,,,,,,,,,,,,,,,,,,,,,,,,,,980.6126992619993,None,980.6126992619993,None,,,,,,,,,sub-15,22/12/2004,2: Female,14/10/2023,002,1: right,2023_Oct_14_1105,[FINAL]_fmri_multiplication,2021.2.3,59.90156376037741
block7.xlsx,,,,,,,,,,,,,,0,2,2,2,,,,,16,0,16,0,,,,,,,,,,,,,,,,,,,,,,,,,,,,,,,,,,,,,,981.6131348979998,None,981.6131348979998,None,,,,,,,,,sub-15,22/12/2004,2: Female,14/10/2023,002,1: right,2023_Oct_14_1105,[FINAL]_fmri_multiplication,2021.2.3,59.90156376037741
block7.xlsx,,,,,,,,,,,,,,0,2,2,2,,,,,17,0,17,0,,,,,,,,,,,,,,,,,,,,,,,,,,,,,,,,,,,,,,982.6258571859998,None,982.6258571859998,None,,,,,,,,,sub-15,22/12/2004,2: Female,14/10/2023,002,1: right,2023_Oct_14_1105,[FINAL]_fmri_multiplication,2021.2.3,59.90156376037741
block7.xlsx,,,,,,,,,,,,,,0,2,2,2,,,,,18,0,18,0,,,,,,,,,,,,,,,,,,,,,,,,,,,,,,,,,,,,,,983.6126414859991,None,983.6126414859991,None,,,,,,,,,sub-15,22/12/2004,2: Female,14/10/2023,002,1: right,2023_Oct_14_1105,[FINAL]_fmri_multiplication,2021.2.3,59.90156376037741
block7.xlsx,,,,,,,,,,,,,,0,2,2,2,,,,,19,0,19,0,,,,,,,,,,,,,,,,,,,,,,,,,,,,,,,,,,,,,,984.6127331099997,None,984.6127331099997,None,,,,,,,,,sub-15,22/12/2004,2: Female,14/10/2023,002,1: right,2023_Oct_14_1105,[FINAL]_fmri_multiplication,2021.2.3,59.90156376037741
block7.xlsx,,,,,,,,,,,,,,0,2,2,2,,,,,20,0,20,0,,,,,,,,,,,,,,,,,,,,,,,,,,,,,,,,,,,,,,985.6126976399992,None,985.6126976399992,None,,,,,,,,,sub-15,22/12/2004,2: Female,14/10/2023,002,1: right,2023_Oct_14_1105,[FINAL]_fmri_multiplication,2021.2.3,59.90156376037741
block7.xlsx,,,,,,,,,,,,,,0,2,2,2,,,,,21,0,21,0,,,,,,,,,,,,,,,,,,,,,,,,,,,,,,,,,,,,,,986.6123016260008,None,986.6123016260008,None,,,,,,,,,sub-15,22/12/2004,2: Female,14/10/2023,002,1: right,2023_Oct_14_1105,[FINAL]_fmri_multiplication,2021.2.3,59.90156376037741
block7.xlsx,,,,,,,,,,,,,,0,2,2,2,,,,,22,0,22,0,,,,,,,,,,,,,,,,,,,,,,,,,,,,,,,,,,,,,,987.6119447090005,None,987.6119447090005,None,,,,,,,,,sub-15,22/12/2004,2: Female,14/10/2023,002,1: right,2023_Oct_14_1105,[FINAL]_fmri_multiplication,2021.2.3,59.90156376037741
block7.xlsx,,,,,,,,,,,,,,0,2,2,2,,,,,23,0,23,0,,,,,,,,,,,,,,,,,,,,,,,,,,,,,,,,,,,,,,988.6129706119991,None,988.6129706119991,None,,,,,,,,,sub-15,22/12/2004,2: Female,14/10/2023,002,1: right,2023_Oct_14_1105,[FINAL]_fmri_multiplication,2021.2.3,59.90156376037741
block7.xlsx,,,,,,,,,,,,,,0,2,2,2,,,,,24,0,24,0,,,,,,,,,,,,,,,,,,,,,,,,,,,,,,,,,,,,,,989.6119516569997,None,989.6119516569997,None,,,,,,,,,sub-15,22/12/2004,2: Female,14/10/2023,002,1: right,2023_Oct_14_1105,[FINAL]_fmri_multiplication,2021.2.3,59.90156376037741
block7.xlsx,,,,,,,,,,,,,,0,2,2,2,,,,,25,0,25,0,,,,,,,,,,,,,,,,,,,,,,,,,,,,,,,,,,,,,,990.6120280750001,None,990.6120280750001,None,,,,,,,,,sub-15,22/12/2004,2: Female,14/10/2023,002,1: right,2023_Oct_14_1105,[FINAL]_fmri_multiplication,2021.2.3,59.90156376037741
block7.xlsx,,,,,,,,,,,,,,0,2,2,2,,,,,26,0,26,0,,,,,,,,,,,,,,,,,,,,,,,,,,,,,,,,,,,,,,991.6119769920006,None,991.6119769920006,None,,,,,,,,,sub-15,22/12/2004,2: Female,14/10/2023,002,1: right,2023_Oct_14_1105,[FINAL]_fmri_multiplication,2021.2.3,59.90156376037741
block7.xlsx,,,,,,,,,,,,,,0,2,2,2,,,,,27,0,27,0,,,,,,,,,,,,,,,,,,,,,,,,,,,,,,,,,,,,,,992.6118883870004,None,992.6118883870004,None,,,,,,,,,sub-15,22/12/2004,2: Female,14/10/2023,002,1: right,2023_Oct_14_1105,[FINAL]_fmri_multiplication,2021.2.3,59.90156376037741
block7.xlsx,,,,,,,,,,,,,,0,2,2,2,,,,,28,0,28,0,,,,,,,,,,,,,,,,,,,,,,,,,,,,,,,,,,,,,,993.6123245710005,None,993.6123245710005,None,,,,,,,,,sub-15,22/12/2004,2: Female,14/10/2023,002,1: right,2023_Oct_14_1105,[FINAL]_fmri_multiplication,2021.2.3,59.90156376037741
block7.xlsx,,,,,,,,,,,,,,0,2,2,2,,,,,29,0,29,0,,,,,,,,,,,,,,,,,,,,,,,,,,,,,,,,,,,,,,994.6118677659997,None,994.6118677659997,None,,,,,,,,,sub-15,22/12/2004,2: Female,14/10/2023,002,1: right,2023_Oct_14_1105,[FINAL]_fmri_multiplication,2021.2.3,59.90156376037741
block7.xlsx,,,,,,,,,,,,,,0,2,2,2,,,,,,,,,,,,,,,,,,,,,,,,,,,,,,,,,,,,,,,,,,,,,,,,,,,,,,,,,,sub-15,22/12/2004,2: Female,14/10/2023,002,1: right,2023_Oct_14_1105,[FINAL]_fmri_multiplication,2021.2.3,59.90156376037741
block8.xlsx,10,7.5,4.2,9 x 9,81,16,9 x 9 = 81,large-sized_low-interference,large-sized,low-interference,6,CorrectRESP,a,0,3,3,3,0,0,0,0,,,,,,,,,,,,,995.6125045219997,None,1005.6344242489995,None,1006.1123049840007,None,1008.1122683960002,None,1008.8621648339995,None,1009.1122051300008,None,1009.1122051300008,None,d,0,0.4899976720007544,1009.1122051300008,None,1009.6285632689996,None,1009.6285632689996,None,d,0.45355250800093927,1009.6285632689996,None,1010.1118004660002,None,,,,,,,,,,,,,sub-15,22/12/2004,2: Female,14/10/2023,002,1: right,2023_Oct_14_1105,[FINAL]_fmri_multiplication,2021.2.3,59.90156376037741
block8.xlsx,21.7,7.5,5.5,5 x 4,20,8,4 x 5 = 20,small-sized_high-interference,small-sized,high-interference,8,CorrectRESP,a,0,3,3,3,0,1,1,1,,,,,,,,,,,,,,,1014.3120047560005,None,1014.8117915599996,None,1016.8118885919994,None,1017.5617579619993,None,1017.8121294369994,None,1017.8121294369994,None,None,0,,1017.8121294369994,None,1019.8117512730005,None,1019.8117512730005,None,a,0.18250662900027237,1019.8117512730005,None,1020.0113079570001,None,,,,,,,,,,,,,sub-15,22/12/2004,2: Female,14/10/2023,002,1: right,2023_Oct_14_1105,[FINAL]_fmri_multiplication,2021.2.3,59.90156376037741
block8.xlsx,34.7,7.5,13.5,9 x 4,32,20,4 x 9 = 32,large-sized_high-interference,large-sized,high-interference,9,IncorrectRESP,d,0,3,3,3,0,2,2,2,,,,,,,,,,,,,,,1025.5118105969996,None,1026.0112731640002,None,1028.0116873339994,None,1028.7615883020007,None,1029.0119974259997,None,1029.0119974259997,None,a,0,1.0461775679996208,1029.0119974259997,None,1030.0780097139996,None,1030.0780097139996,None,d,0.6041163079989929,1030.0780097139996,None,1030.7113801359992,None,,,,,,,,,,,,,sub-15,22/12/2004,2: Female,14/10/2023,002,1: right,2023_Oct_14_1105,[FINAL]_fmri_multiplication,2021.2.3,59.90156376037741
block8.xlsx,55.7,7.5,3.1,4 x 6,24,10,6 x 4 = 24,small-sized_high-interference,small-sized,high-interference,12,CorrectRESP,a,0,3,3,3,0,3,3,3,,,,,,,,,,,,,,,1044.2121338649995,None,1044.7124217830005,None,1046.7122140819993,None,1047.4621414800004,None,1047.7118092660003,None,1047.7118092660003,None,d,0,1.1063557819998096,1047.7118092660003,None,1048.8446835060004,None,1048.8446835060004,None,d,0.34153244299886865,1048.8446835060004,None,1049.2113072739994,None,,,,,,,,,,,,,sub-15,22/12/2004,2: Female,14/10/2023,002,1: right,2023_Oct_14_1105,[FINAL]_fmri_multiplication,2021.2.3,59.90156376037741
block8.xlsx,66.3,7.5,7.7,2 x 6,10,6,6 x 2 = 10,small-sized_low-interference,small-sized,low-interference,3,IncorrectRESP,d,0,3,3,3,0,4,4,4,,,,,,,,,,,,,,,1052.3117567909994,None,1052.8117787659994,None,1054.8115165039999,None,1055.5614096000008,None,1055.8118,None,1055.8118,None,None,0,,1055.8118,None,1057.8116172659993,None,1057.8116172659993,None,a,1.5344831279999198,1057.8116172659993,None,1059.3783845510006,None,,,,,,,,,,,,,sub-15,22/12/2004,2: Female,14/10/2023,002,1: right,2023_Oct_14_1105,[FINAL]_fmri_multiplication,2021.2.3,59.90156376037741
block8.xlsx,81.5,7.5,6.9,7 x 7,49,18,7 x 7 = 49,large-sized_low-interference,large-sized,low-interference,7,CorrectRESP,a,0,3,3,3,0,5,5,5,,,,,,,,,,,,,,,1067.0779309179998,None,1067.5783326050005,None,1069.5782729439998,None,1070.3281548230007,None,1070.5789388920002,None,1070.5789388920002,None,d,0,0.5671979910002847,1070.5789388920002,None,1071.1790547849996,None,1071.1790547849996,None,d,0.3190526399994269,1071.1790547849996,None,1071.5287558180007,None,,,,,,,,,,,,,sub-15,22/12/2004,2: Female,14/10/2023,002,1: right,2023_Oct_14_1105,[FINAL]_fmri_multiplication,2021.2.3,59.90156376037741
block8.xlsx,95.9,7.5,12.3,2 x 6,12,6,6 x 2 = 12,small-sized_low-interference,small-sized,low-interference,3,CorrectRESP,a,0,3,3,3,0,6,6,6,,,,,,,,,,,,,,,1078.428802463999,None,1078.9292031669993,None,1080.928923,None,1081.6787891139993,None,1081.9292174389993,None,1081.9292174389993,None,d,0,0.392934157,1081.9292174389993,None,1082.344721944999,None,1082.344721944999,None,d,0.33739456699913717,1082.344721944999,None,1082.7119199640001,None,,,,,,,,,,,,,sub-15,22/12/2004,2: Female,14/10/2023,002,1: right,2023_Oct_14_1105,[FINAL]_fmri_multiplication,2021.2.3,59.90156376037741
block8.xlsx,115.7,7.5,2.7,7 x 8,63,22,8 x 7 = 63,large-sized_high-interference,large-sized,high-interference,9,IncorrectRESP,d,0,3,3,3,0,7,7,7,,,,,,,,,,,,,,,1095.0115208900006,None,1095.5121354179992,None,1097.5116181400008,None,1098.261662,None,1098.5123212100007,None,1098.5123212100007,None,a,0,0.9539200780000101,1098.5123212100007,None,1099.494661,None,1099.494661,None,d,0.4674654250011372,1099.494661,None,1099.9947052919997,None,,,,,,,,,,,,,sub-15,22/12/2004,2: Female,14/10/2023,002,1: right,2023_Oct_14_1105,[FINAL]_fmri_multiplication,2021.2.3,59.90156376037741
block8.xlsx,125.9,7.5,7.8,9 x 2,16,2,2 x 9 = 16,small-sized_low-interference,small-sized,low-interference,7,IncorrectRESP,d,0,3,3,3,0,8,8,8,,,,,,,,,,,,,,,1102.6950634820005,None,1103.1957020419995,None,1105.1951809589991,None,1105.9451517910002,None,1106.1953402769996,None,1106.1953402769996,None,a,0,0.7829941740001232,1106.1953402769996,None,1106.995664136999,None,1106.995664136999,None,a,0.5664699259996269,1106.995664136999,None,1107.5952628769992,None,,,,,,,,,,,,,sub-15,22/12/2004,2: Female,14/10/2023,002,1: right,2023_Oct_14_1105,[FINAL]_fmri_multiplication,2021.2.3,59.90156376037741
block8.xlsx,141.2,7.5,2.9,8 x 3,24,12,3 x 8 = 24,small-sized_high-interference,small-sized,high-interference,13,CorrectRESP,a,0,3,3,3,0,9,9,9,,,,,,,,,,,,,,,1115.3954901039997,None,1115.8957575059994,None,1117.8952166069994,None,1118.6451891899997,None,1118.894945,None,1118.894945,None,None,0,,1118.894945,None,1120.8951812939995,None,1120.8951812939995,None,a,0.8270287810009904,1120.8951812939995,None,1121.7446660240003,None,,,,,,,,,,,,,sub-15,22/12/2004,2: Female,14/10/2023,002,1: right,2023_Oct_14_1105,[FINAL]_fmri_multiplication,2021.2.3,59.90156376037741
block8.xlsx,151.6,7.5,2,4 x 8,32,24,8 x 4 = 32,large-sized_high-interference,large-sized,high-interference,25,CorrectRESP,a,0,3,3,3,0,10,10,10,,,,,,,,,,,,,,,1124.6446075900003,None,1125.1449098270004,None,1127.1451221169991,None,1127.8951894250004,None,1128.145282,None,1128.145282,None,d,0,1.4409245499991812,1128.145282,None,1129.6113708379999,None,1129.6113708379999,None,d,0.3507336139991821,1129.6113708379999,None,1129.9951042619996,None,,,,,,,,,,,,,sub-15,22/12/2004,2: Female,14/10/2023,002,1: right,2023_Oct_14_1105,[FINAL]_fmri_multiplication,2021.2.3,59.90156376037741
block8.xlsx,161.1,7.5,13.1,9 x 9,72,16,9 x 9 = 72,large-sized_low-interference,large-sized,low-interference,6,IncorrectRESP,d,0,3,3,3,0,11,11,11,,,,,,,,,,,,,,,1131.9950928689996,None,1132.4941832219993,None,1134.4950721189998,None,1135.2450854340004,None,1135.4956846660007,None,1135.4956846660007,None,a,0,0.7624945520001347,1135.4956846660007,None,1136.2779015659999,None,1136.2779015659999,None,d,0.3242833519998385,1136.2779015659999,None,1136.627787,None,,,,,,,,,,,,,sub-15,22/12/2004,2: Female,14/10/2023,002,1: right,2023_Oct_14_1105,[FINAL]_fmri_multiplication,2021.2.3,59.90156376037741
block8.xlsx,181.7,7.5,2.4,5 x 4,16,8,4 x 5 = 16,small-sized_high-interference,small-sized,high-interference,8,IncorrectRESP,d,0,3,3,3,0,12,12,12,,,,,,,,,,,,,,,1149.7289455329992,None,1150.2288581049997,None,1152.2288667970006,None,1152.9787069949998,None,1153.2286863000008,None,1153.2286863000008,None,a,0,0.6774901600001613,1153.2286863000008,None,1153.9280222369998,None,1153.9280222369998,None,d,0.7700945190008497,1153.9280222369998,None,1154.7280217469997,None,,,,,,,,,,,,,sub-15,22/12/2004,2: Female,14/10/2023,002,1: right,2023_Oct_14_1105,[FINAL]_fmri_multiplication,2021.2.3,59.90156376037741
block8.xlsx,191.6,7.5,5.7,7 x 7,56,18,7 x 7 = 56,large-sized_low-interference,large-sized,low-interference,7,IncorrectRESP,d,0,3,3,3,0,13,13,13,,,,,,,,,,,,,,,1157.128468,None,1157.6280487210006,None,1159.6283815539991,None,1160.378467303999,None,1160.6282579540002,None,1160.6282579540002,None,a,0,1.213949118000528,1160.6282579540002,None,1161.8613517459999,None,1161.8613517459999,None,d,0.6367565949985874,1161.8613517459999,None,1162.5285279220006,None,,,,,,,,,,,,,sub-15,22/12/2004,2: Female,14/10/2023,002,1: right,2023_Oct_14_1105,[FINAL]_fmri_multiplication,2021.2.3,59.90156376037741
block8.xlsx,204.8,7.5,2.2,9 x 2,18,2,2 x 9 = 18,small-sized_low-interference,small-sized,low-interference,7,CorrectRESP,a,0,3,3,3,0,14,14,14,,,,,,,,,,,,,,,1168.2280820390006,None,1168.7291194089994,None,1170.7284296849994,None,1171.4784546650008,None,1171.7284323090007,None,1171.7284323090007,None,a,1,0.3297818700011703,1171.7284323090007,None,1172.077963,None,1172.077963,None,None,,1172.077963,None,1174.0784761480008,None,,,,,,,,,,,,,sub-15,22/12/2004,2: Female,14/10/2023,002,1: right,2023_Oct_14_1105,[FINAL]_fmri_multiplication,2021.2.3,59.90156376037741
block8.xlsx,214.5,7.5,5.2,8 x 3,21,12,3 x 8 = 21,small-sized_high-interference,small-sized,high-interference,13,IncorrectRESP,d,0,3,3,3,0,15,15,15,,,,,,,,,,,,,,,1176.2785848700005,None,1176.7786756629994,None,1178.7786434980007,None,1179.5434392480001,None,1179.7948092299994,None,1179.7948092299994,None,a,0,1.95129728,1179.7948092299994,None,1181.7788098780002,None,1181.7788098780002,None,a,0.7032991320011206,1181.7788098780002,None,1182.512295471999,None,,,,,,,,,,,,,sub-15,22/12/2004,2: Female,14/10/2023,002,1: right,2023_Oct_14_1105,[FINAL]_fmri_multiplication,2021.2.3,59.90156376037741
block8.xlsx,227.2,7.5,3.8,4 x 4,20,4,4 x 4 = 20,small-sized_low-interference,small-sized,low-interference,5,IncorrectRESP,d,0,3,3,3,0,16,16,16,,,,,,,,,,,,,,,1187.7121050639998,None,1188.2113311699995,None,1190.2118876040004,None,1190.9617899730001,None,1191.211793,None,1191.211793,None,a,0,1.3343138379987067,1191.211793,None,1192.5783676339997,None,1192.5783676339997,None,d,0.4478365569993912,1192.5783676339997,None,1193.0444130310007,None,,,,,,,,,,,,,sub-15,22/12/2004,2: Female,14/10/2023,002,1: right,2023_Oct_14_1105,[FINAL]_fmri_multiplication,2021.2.3,59.90156376037741
block8.xlsx,238.5,7.5,2,4 x 6,28,10,6 x 4 = 28,small-sized_high-interference,small-sized,high-interference,12,IncorrectRESP,d,0,3,3,3,0,17,17,17,,,,,,,,,,,,,,,1196.8447293980007,None,1197.3453520559997,None,1199.3451549830006,None,1200.0951362359992,None,1200.3456867500008,None,1200.3456867500008,None,a,0,0.8164070670009096,1200.3456867500008,None,1201.1950001599998,None,1201.1950001599998,None,d,0.9031315649990574,1201.1950001599998,None,1202.1280054050003,None,,,,,,,,,,,,,sub-15,22/12/2004,2: Female,14/10/2023,002,1: right,2023_Oct_14_1105,[FINAL]_fmri_multiplication,2021.2.3,59.90156376037741
block8.xlsx,248,7.5,4,6 x 5,30,14,5 x 6 = 30,large-sized_low-interference,large-sized,low-interference,6,CorrectRESP,a,0,3,3,3,0,18,18,18,,,,,,,,,,,,,,,1204.1286910510007,None,1204.6302193779993,None,1206.6438654510002,None,1207.3950581049994,None,1207.644775024999,None,1207.644775024999,None,d,0,0.8533391309993021,1207.644775024999,None,1208.5286161549993,None,1208.5286161549993,None,d,0.297564851,1208.5286161549993,None,1208.844583,None,,,,,,,,,,,,,sub-15,22/12/2004,2: Female,14/10/2023,002,1: right,2023_Oct_14_1105,[FINAL]_fmri_multiplication,2021.2.3,59.90156376037741
block8.xlsx,259.5,7.5,11.3,7 x 8,56,22,8 x 7 = 56,large-sized_high-interference,large-sized,high-interference,9,CorrectRESP,a,0,3,3,3,0,19,19,19,,,,,,,,,,,,,,,1212.8448928990001,None,1213.3455655649996,None,1215.345554,None,1216.0955043390004,None,1216.3462543570004,None,1216.3462543570004,None,None,0,,1216.3462543570004,None,1218.3455161410002,None,1218.3455161410002,None,a,1.512711601000774,1218.3455161410002,None,1219.8784163809996,None,,,,,,,,,,,,,sub-15,22/12/2004,2: Female,14/10/2023,002,1: right,2023_Oct_14_1105,[FINAL]_fmri_multiplication,2021.2.3,59.90156376037741
block8.xlsx,278.3,7.5,10.9,6 x 5,36,14,5 x 6 = 36,large-sized_low-interference,large-sized,low-interference,6,IncorrectRESP,d,0,3,3,3,0,20,20,20,,,,,,,,,,,,,,,1231.1784424550005,None,1231.6787401849997,None,1233.6784825129998,None,1234.4282525189992,None,1234.6790489070008,None,1234.6790489070008,None,a,0,0.8510457039992616,1234.6790489070008,None,1235.5615570089994,None,1235.5615570089994,None,d,0.33654747899890936,1235.5615570089994,None,1235.9284885350007,None,,,,,,,,,,,,,sub-15,22/12/2004,2: Female,14/10/2023,002,1: right,2023_Oct_14_1105,[FINAL]_fmri_multiplication,2021.2.3,59.90156376037741
block8.xlsx,296.7,7.5,3.5,9 x 4,36,20,4 x 9 = 36,large-sized_high-interference,large-sized,high-interference,9,CorrectRESP,a,0,3,3,3,0,21,21,21,,,,,,,,,,,,,,,1246.8285088859993,None,1247.3283715399994,None,1249.3286527540004,None,1250.0951227080004,None,1250.3460111709992,None,1250.3460111709992,None,d,0,1.3761875969994435,1250.3460111709992,None,1251.7450777129998,None,1251.7450777129998,None,d,0.289197697,1251.7450777129998,None,1252.0616956909998,None,,,,,,,,,,,,,sub-15,22/12/2004,2: Female,14/10/2023,002,1: right,2023_Oct_14_1105,[FINAL]_fmri_multiplication,2021.2.3,59.90156376037741
block8.xlsx,307.7,7.5,2.9,4 x 4,16,4,4 x 4 = 16,small-sized_low-interference,small-sized,low-interference,5,CorrectRESP,a,0,3,3,3,0,22,22,22,,,,,,,,,,,,,,,1255.5621345349991,None,1256.0623199429992,None,1258.0620344710005,None,1258.8118462559996,None,1259.0617757069995,None,1259.0617757069995,None,d,0,0.620463508,1259.0617757069995,None,1259.711614,None,1259.711614,None,d,0.2504671970000345,1259.711614,None,1259.9945663840008,None,,,,,,,,,,,,,sub-15,22/12/2004,2: Female,14/10/2023,002,1: right,2023_Oct_14_1105,[FINAL]_fmri_multiplication,2021.2.3,59.90156376037741
block8.xlsx,318.1,7.5,9.4,4 x 8,28,24,8 x 4 = 28,large-sized_high-interference,large-sized,high-interference,25,IncorrectRESP,d,0,3,3,3,0,23,23,23,,,,,,,,,,,,,,,1262.8951932380005,None,1263.3953090039995,None,1265.3949154170004,None,1266.1446001259992,None,1266.3952783379991,None,1266.3952783379991,None,d,1,1.5348336059996655,1266.3952783379991,None,1267.9619694199991,None,1267.9619694199991,None,a,0.9841622399999324,1267.9619694199991,None,1268.97832,None,,,,,,,,,,,,,sub-15,22/12/2004,2: Female,14/10/2023,002,1: right,2023_Oct_14_1105,[FINAL]_fmri_multiplication,2021.2.3,59.90156376037741
block8.xlsx,,,,,,,,,,,,,,0,3,3,3,,,,,0,0,0,0,,,,,,,,,,,,,,,,,,,,,,,,,,,,,,,,,,,,,,1278.3795932489993,None,1278.3795932489993,None,,,,,,,,,sub-15,22/12/2004,2: Female,14/10/2023,002,1: right,2023_Oct_14_1105,[FINAL]_fmri_multiplication,2021.2.3,59.90156376037741
block8.xlsx,,,,,,,,,,,,,,0,3,3,3,,,,,1,0,1,0,,,,,,,,,,,,,,,,,,,,,,,,,,,,,,,,,,,,,,1279.3975705009998,None,1279.3975705009998,None,,,,,,,,,sub-15,22/12/2004,2: Female,14/10/2023,002,1: right,2023_Oct_14_1105,[FINAL]_fmri_multiplication,2021.2.3,59.90156376037741
block8.xlsx,,,,,,,,,,,,,,0,3,3,3,,,,,2,0,2,0,,,,,,,,,,,,,,,,,,,,,,,,,,,,,,,,,,,,,,1280.3953980730003,None,1280.3953980730003,None,,,,,,,,,sub-15,22/12/2004,2: Female,14/10/2023,002,1: right,2023_Oct_14_1105,[FINAL]_fmri_multiplication,2021.2.3,59.90156376037741
block8.xlsx,,,,,,,,,,,,,,0,3,3,3,,,,,3,0,3,0,,,,,,,,,,,,,,,,,,,,,,,,,,,,,,,,,,,,,,1281.3964338330006,None,1281.3964338330006,None,,,,,,,,,sub-15,22/12/2004,2: Female,14/10/2023,002,1: right,2023_Oct_14_1105,[FINAL]_fmri_multiplication,2021.2.3,59.90156376037741
block8.xlsx,,,,,,,,,,,,,,0,3,3,3,,,,,4,0,4,0,,,,,,,,,,,,,,,,,,,,,,,,,,,,,,,,,,,,,,1282.3961068850003,None,1282.3961068850003,None,,,,,,,,,sub-15,22/12/2004,2: Female,14/10/2023,002,1: right,2023_Oct_14_1105,[FINAL]_fmri_multiplication,2021.2.3,59.90156376037741
block8.xlsx,,,,,,,,,,,,,,0,3,3,3,,,,,5,0,5,0,,,,,,,,,,,,,,,,,,,,,,,,,,,,,,,,,,,,,,1283.3960716050005,None,1283.3960716050005,None,,,,,,,,,sub-15,22/12/2004,2: Female,14/10/2023,002,1: right,2023_Oct_14_1105,[FINAL]_fmri_multiplication,2021.2.3,59.90156376037741
block8.xlsx,,,,,,,,,,,,,,0,3,3,3,,,,,6,0,6,0,,,,,,,,,,,,,,,,,,,,,,,,,,,,,,,,,,,,,,1284.3973302979994,None,1284.3973302979994,None,,,,,,,,,sub-15,22/12/2004,2: Female,14/10/2023,002,1: right,2023_Oct_14_1105,[FINAL]_fmri_multiplication,2021.2.3,59.90156376037741
block8.xlsx,,,,,,,,,,,,,,0,3,3,3,,,,,7,0,7,0,,,,,,,,,,,,,,,,,,,,,,,,,,,,,,,,,,,,,,1285.3964875250003,None,1285.3964875250003,None,,,,,,,,,sub-15,22/12/2004,2: Female,14/10/2023,002,1: right,2023_Oct_14_1105,[FINAL]_fmri_multiplication,2021.2.3,59.90156376037741
block8.xlsx,,,,,,,,,,,,,,0,3,3,3,,,,,8,0,8,0,,,,,,,,,,,,,,,,,,,,,,,,,,,,,,,,,,,,,,1286.409735,None,1286.409735,None,,,,,,,,,sub-15,22/12/2004,2: Female,14/10/2023,002,1: right,2023_Oct_14_1105,[FINAL]_fmri_multiplication,2021.2.3,59.90156376037741
block8.xlsx,,,,,,,,,,,,,,0,3,3,3,,,,,9,0,9,0,,,,,,,,,,,,,,,,,,,,,,,,,,,,,,,,,,,,,,1287.3968229450002,None,1287.3968229450002,None,,,,,,,,,sub-15,22/12/2004,2: Female,14/10/2023,002,1: right,2023_Oct_14_1105,[FINAL]_fmri_multiplication,2021.2.3,59.90156376037741
block8.xlsx,,,,,,,,,,,,,,0,3,3,3,,,,,10,0,10,0,,,,,,,,,,,,,,,,,,,,,,,,,,,,,,,,,,,,,,1288.3957324719995,None,1288.3957324719995,None,,,,,,,,,sub-15,22/12/2004,2: Female,14/10/2023,002,1: right,2023_Oct_14_1105,[FINAL]_fmri_multiplication,2021.2.3,59.90156376037741
block8.xlsx,,,,,,,,,,,,,,0,3,3,3,,,,,11,0,11,0,,,,,,,,,,,,,,,,,,,,,,,,,,,,,,,,,,,,,,1289.3964557939998,None,1289.3964557939998,None,,,,,,,,,sub-15,22/12/2004,2: Female,14/10/2023,002,1: right,2023_Oct_14_1105,[FINAL]_fmri_multiplication,2021.2.3,59.90156376037741
block8.xlsx,,,,,,,,,,,,,,0,3,3,3,,,,,12,0,12,0,,,,,,,,,,,,,,,,,,,,,,,,,,,,,,,,,,,,,,1290.3969938179998,None,1290.3969938179998,None,,,,,,,,,sub-15,22/12/2004,2: Female,14/10/2023,002,1: right,2023_Oct_14_1105,[FINAL]_fmri_multiplication,2021.2.3,59.90156376037741
block8.xlsx,,,,,,,,,,,,,,0,3,3,3,,,,,13,0,13,0,,,,,,,,,,,,,,,,,,,,,,,,,,,,,,,,,,,,,,1291.3958198220007,None,1291.3958198220007,None,,,,,,,,,sub-15,22/12/2004,2: Female,14/10/2023,002,1: right,2023_Oct_14_1105,[FINAL]_fmri_multiplication,2021.2.3,59.90156376037741
block8.xlsx,,,,,,,,,,,,,,0,3,3,3,,,,,14,0,14,0,,,,,,,,,,,,,,,,,,,,,,,,,,,,,,,,,,,,,,1292.3967223269992,None,1292.3967223269992,None,,,,,,,,,sub-15,22/12/2004,2: Female,14/10/2023,002,1: right,2023_Oct_14_1105,[FINAL]_fmri_multiplication,2021.2.3,59.90156376037741
block8.xlsx,,,,,,,,,,,,,,0,3,3,3,,,,,15,0,15,0,,,,,,,,,,,,,,,,,,,,,,,,,,,,,,,,,,,,,,1293.3966867100007,None,1293.3966867100007,None,,,,,,,,,sub-15,22/12/2004,2: Female,14/10/2023,002,1: right,2023_Oct_14_1105,[FINAL]_fmri_multiplication,2021.2.3,59.90156376037741
block8.xlsx,,,,,,,,,,,,,,0,3,3,3,,,,,16,0,16,0,,,,,,,,,,,,,,,,,,,,,,,,,,,,,,,,,,,,,,1294.3958885569991,None,1294.3958885569991,None,,,,,,,,,sub-15,22/12/2004,2: Female,14/10/2023,002,1: right,2023_Oct_14_1105,[FINAL]_fmri_multiplication,2021.2.3,59.90156376037741
block8.xlsx,,,,,,,,,,,,,,0,3,3,3,,,,,17,0,17,0,,,,,,,,,,,,,,,,,,,,,,,,,,,,,,,,,,,,,,1295.3973794939993,None,1295.3973794939993,None,,,,,,,,,sub-15,22/12/2004,2: Female,14/10/2023,002,1: right,2023_Oct_14_1105,[FINAL]_fmri_multiplication,2021.2.3,59.90156376037741
block8.xlsx,,,,,,,,,,,,,,0,3,3,3,,,,,18,0,18,0,,,,,,,,,,,,,,,,,,,,,,,,,,,,,,,,,,,,,,1296.395893,None,1296.395893,None,,,,,,,,,sub-15,22/12/2004,2: Female,14/10/2023,002,1: right,2023_Oct_14_1105,[FINAL]_fmri_multiplication,2021.2.3,59.90156376037741
block8.xlsx,,,,,,,,,,,,,,0,3,3,3,,,,,19,0,19,0,,,,,,,,,,,,,,,,,,,,,,,,,,,,,,,,,,,,,,1297.3954262459993,None,1297.3954262459993,None,,,,,,,,,sub-15,22/12/2004,2: Female,14/10/2023,002,1: right,2023_Oct_14_1105,[FINAL]_fmri_multiplication,2021.2.3,59.90156376037741
block8.xlsx,,,,,,,,,,,,,,0,3,3,3,,,,,20,0,20,0,,,,,,,,,,,,,,,,,,,,,,,,,,,,,,,,,,,,,,1298.3955360359996,None,1298.3955360359996,None,,,,,,,,,sub-15,22/12/2004,2: Female,14/10/2023,002,1: right,2023_Oct_14_1105,[FINAL]_fmri_multiplication,2021.2.3,59.90156376037741
block8.xlsx,,,,,,,,,,,,,,0,3,3,3,,,,,21,0,21,0,,,,,,,,,,,,,,,,,,,,,,,,,,,,,,,,,,,,,,1299.3961885850003,None,1299.3961885850003,None,,,,,,,,,sub-15,22/12/2004,2: Female,14/10/2023,002,1: right,2023_Oct_14_1105,[FINAL]_fmri_multiplication,2021.2.3,59.90156376037741
block8.xlsx,,,,,,,,,,,,,,0,3,3,3,,,,,22,0,22,0,,,,,,,,,,,,,,,,,,,,,,,,,,,,,,,,,,,,,,1300.3960739729991,None,1300.3960739729991,None,,,,,,,,,sub-15,22/12/2004,2: Female,14/10/2023,002,1: right,2023_Oct_14_1105,[FINAL]_fmri_multiplication,2021.2.3,59.90156376037741
block8.xlsx,,,,,,,,,,,,,,0,3,3,3,,,,,23,0,23,0,,,,,,,,,,,,,,,,,,,,,,,,,,,,,,,,,,,,,,1301.3955847670004,None,1301.3955847670004,None,,,,,,,,,sub-15,22/12/2004,2: Female,14/10/2023,002,1: right,2023_Oct_14_1105,[FINAL]_fmri_multiplication,2021.2.3,59.90156376037741
block8.xlsx,,,,,,,,,,,,,,0,3,3,3,,,,,24,0,24,0,,,,,,,,,,,,,,,,,,,,,,,,,,,,,,,,,,,,,,1302.3960505359992,None,1302.3960505359992,None,,,,,,,,,sub-15,22/12/2004,2: Female,14/10/2023,002,1: right,2023_Oct_14_1105,[FINAL]_fmri_multiplication,2021.2.3,59.90156376037741
block8.xlsx,,,,,,,,,,,,,,0,3,3,3,,,,,25,0,25,0,,,,,,,,,,,,,,,,,,,,,,,,,,,,,,,,,,,,,,1303.3961347860004,None,1303.3961347860004,None,,,,,,,,,sub-15,22/12/2004,2: Female,14/10/2023,002,1: right,2023_Oct_14_1105,[FINAL]_fmri_multiplication,2021.2.3,59.90156376037741
block8.xlsx,,,,,,,,,,,,,,0,3,3,3,,,,,26,0,26,0,,,,,,,,,,,,,,,,,,,,,,,,,,,,,,,,,,,,,,1304.3954761679997,None,1304.3954761679997,None,,,,,,,,,sub-15,22/12/2004,2: Female,14/10/2023,002,1: right,2023_Oct_14_1105,[FINAL]_fmri_multiplication,2021.2.3,59.90156376037741
block8.xlsx,,,,,,,,,,,,,,0,3,3,3,,,,,27,0,27,0,,,,,,,,,,,,,,,,,,,,,,,,,,,,,,,,,,,,,,1305.395169,None,1305.395169,None,,,,,,,,,sub-15,22/12/2004,2: Female,14/10/2023,002,1: right,2023_Oct_14_1105,[FINAL]_fmri_multiplication,2021.2.3,59.90156376037741
block8.xlsx,,,,,,,,,,,,,,0,3,3,3,,,,,28,0,28,0,,,,,,,,,,,,,,,,,,,,,,,,,,,,,,,,,,,,,,1306.3956715639997,None,1306.3956715639997,None,,,,,,,,,sub-15,22/12/2004,2: Female,14/10/2023,002,1: right,2023_Oct_14_1105,[FINAL]_fmri_multiplication,2021.2.3,59.90156376037741
block8.xlsx,,,,,,,,,,,,,,0,3,3,3,,,,,29,0,29,0,,,,,,,,,,,,,,,,,,,,,,,,,,,,,,,,,,,,,,1307.3952466930004,None,1307.3952466930004,None,,,,,,,,,sub-15,22/12/2004,2: Female,14/10/2023,002,1: right,2023_Oct_14_1105,[FINAL]_fmri_multiplication,2021.2.3,59.90156376037741
block8.xlsx,,,,,,,,,,,,,,0,3,3,3,,,,,,,,,,,,,,,,,,,,,,,,,,,,,,,,,,,,,,,,,,,,,,,,,,,,,,,,,,sub-15,22/12/2004,2: Female,14/10/2023,002,1: right,2023_Oct_14_1105,[FINAL]_fmri_multiplication,2021.2.3,59.90156376037741
,,,,,,,,,,,,,,,,,,,,,,,,,,,,,,,,,,,,,,,,,,,,,,,,,,,,,,,,,,,,,,,,,,,1308.3949260980007,1310.394901,1310.3779518659994,None,y,328.4074139959994,1310.3779518659994,None,sub-15,22/12/2004,2: Female,14/10/2023,002,1: right,2023_Oct_14_1105,[FINAL]_fmri_multiplication,2021.2.3,59.90156376037741