blocks_file,start,dur,rest,mult_problemB,mult_options,stim_trial,mult_stim,type,ProblemSize,InterferenceLH,InterferenceLevel,mult_type,corrRESP,blocks_set.thisRepN,blocks_set.thisTrialN,blocks_set.thisN,blocks_set.thisIndex,TRIALS.thisRepN,TRIALS.thisTrialN,TRIALS.thisN,TRIALS.thisIndex,timer_loop.thisRepN,timer_loop.thisTrialN,timer_loop.thisN,timer_loop.thisIndex,WAIT_TEXT.started,WAIT_TEXT.stopped,scan_start_trigger.keys,scan_start_trigger.rt,scan_start_trigger.started,scan_start_trigger.stopped,MAIN_SCREEN.started,MAIN_SCREEN.stopped,Block_Text.started,Block_Text.stopped,asterisk500ms.started,asterisk500ms.stopped,mult_question_text.started,mult_question_text.stopped,equal_text.started,equal_text.stopped,blank250_text.started,blank250_text.stopped,Mult_OPTION.started,Mult_OPTION.stopped,Mult_YN.started,Mult_YN.stopped,Mult_Resp.keys,Mult_Resp.corr,Mult_Resp.rt,Mult_Resp.started,Mult_Resp.stopped,Strategy_Q.started,Strategy_Q.stopped,Strategy_Option.started,Strategy_Option.stopped,Strategy_RESP.keys,Strategy_RESP.rt,Strategy_RESP.started,Strategy_RESP.stopped,jitters.started,jitters.stopped,resting_text.started,resting_text.stopped,countdown_timer.started,countdown_timer.stopped,End_Text.started,End_Text.stopped,fixation.started,fixation.stopped,fixation_end.keys,fixation_end.rt,fixation_end.started,fixation_end.stopped,participant,Date of birth (DD/MM/YEAR),gender,Testing Date (DD/MM/YEAR),session,handedness,date,expName,psychopyVersion,frameRate
,,,,,,,,,,,,,,,,,,,,,,,,,,40.40482454099947,None,s,23.12315643599868,40.40482454099947,None,,,,,,,,,,,,,,,,,,,,,,,,,,,,,,,,,,,,,,,,,,,,sub-06,12/03/2002,2: Female,08/09/2023,002,1: right,2023_Sep_08_1750,[FINAL]_fmri_multiplication,2021.2.3,59.96967405503158
block5.xlsx,10,7.5,4.6,3 x 6,18,7,6 x 3 = 18,small-sized_high-interference,small-sized,high-interference,8,CorrectRESP,a,0,0,0,0,0,0,0,0,,,,,,,,,,,63.54896031899989,None,68.56697133200032,None,78.57184721900012,None,79.05395101000067,None,81.04935389,None,81.79948021699965,None,82.05182767099905,None,82.05182767099905,None,a,0,0.4419518880004034,82.05182767099905,None,82.51636137899914,None,82.51636137899914,None,d,0.12141428600079962,82.51636137899914,None,82.66637240099953,None,,,,,,,,,,,,,sub-06,12/03/2002,2: Female,08/09/2023,002,1: right,2023_Sep_08_1750,[FINAL]_fmri_multiplication,2021.2.3,59.96967405503158
block5.xlsx,22.1,7.5,7,9 x 9,72,16,9 x 9 = 72,large-sized_low-interference,large-sized,low-interference,6,IncorrectRESP,d,0,0,0,0,0,1,1,1,,,,,,,,,,,,,,,87.26621953,None,87.76608407099957,None,89.76610759699906,None,90.51654457299992,None,90.76870676999897,None,90.76870676999897,None,d,0,0.44504688899905887,90.76870676999897,None,91.23236257799908,None,91.23236257799908,None,d,0.149475058,91.23236257799908,None,91.39899251600036,None,,,,,,,,,,,,,sub-06,12/03/2002,2: Female,08/09/2023,002,1: right,2023_Sep_08_1750,[FINAL]_fmri_multiplication,2021.2.3,59.96967405503158
block5.xlsx,36.6,7.5,4.4,2 x 6,12,6,6 x 2 = 12,small-sized_low-interference,small-sized,low-interference,3,CorrectRESP,a,0,0,0,0,0,2,2,2,,,,,,,,,,,,,,,98.39911024499997,None,98.89831500199944,None,100.89898685700064,None,101.64876017899951,None,101.89928894699915,None,101.89928894699915,None,a,0,0.3943538029998308,101.89928894699915,None,102.3156156,None,102.3156156,None,d,0.15416447300049185,102.3156156,None,102.49942246499995,None,,,,,,,,,,,,,sub-06,12/03/2002,2: Female,08/09/2023,002,1: right,2023_Sep_08_1750,[FINAL]_fmri_multiplication,2021.2.3,59.96967405503158
block5.xlsx,48.5,7.5,9.6,8 x 3,24,12,3 x 8 = 24,small-sized_high-interference,small-sized,high-interference,13,CorrectRESP,a,0,0,0,0,0,3,3,3,,,,,,,,,,,,,,,106.89928315100042,None,107.39770758099985,None,109.39955515600013,None,110.14939812900047,None,110.39956473100028,None,110.39956473100028,None,a,0,0.3821555039994564,110.39956473100028,None,110.79914895399997,None,110.79914895399997,None,d,0.11057821500071441,110.79914895399997,None,110.93253439799992,None,,,,,,,,,,,,,sub-06,12/03/2002,2: Female,08/09/2023,002,1: right,2023_Sep_08_1750,[FINAL]_fmri_multiplication,2021.2.3,59.96967405503158
block5.xlsx,65.6,7.5,5.4,5 x 5,30,3,5 x 5 = 30,small-sized_low-interference,small-sized,low-interference,3,IncorrectRESP,d,0,0,0,0,0,4,4,4,,,,,,,,,,,,,,,120.53327990999969,None,121.03464482500021,None,123.04999174799923,None,123.80009418699956,None,124.04970390100061,None,124.04970390100061,None,d,0,0.4200267939995683,124.04970390100061,None,124.49906939100038,None,124.49906939100038,None,d,0.098694077,124.49906939100038,None,124.61563214799935,None,,,,,,,,,,,,,sub-06,12/03/2002,2: Female,08/09/2023,002,1: right,2023_Sep_08_1750,[FINAL]_fmri_multiplication,2021.2.3,59.96967405503158
block5.xlsx,78.5,7.5,7.7,3 x 9,27,19,9 x 3 = 27,large-sized_high-interference,large-sized,high-interference,9,CorrectRESP,a,0,0,0,0,0,5,5,5,,,,,,,,,,,,,,,130.01582400299958,None,130.51602500199988,None,132.51612702400053,None,133.2660294239995,None,133.51592625400008,None,133.51592625400008,None,a,0,0.44184334199962905,133.51592625400008,None,133.9823061,None,133.9823061,None,d,0.11149206000118284,133.9823061,None,134.11560791199918,None,,,,,,,,,,,,,sub-06,12/03/2002,2: Female,08/09/2023,002,1: right,2023_Sep_08_1750,[FINAL]_fmri_multiplication,2021.2.3,59.96967405503158
block5.xlsx,93.7,7.5,3.5,2 x 8,18,5,8 x 2 = 18,small-sized_low-interference,small-sized,low-interference,7,IncorrectRESP,d,0,0,0,0,0,6,6,6,,,,,,,,,,,,,,,141.81578750299923,None,142.31584773299983,None,144.31611075799992,None,145.06575386800068,None,145.31580178500008,None,145.31580178500008,None,d,0,0.41785441800129774,145.31580178500008,None,145.7663422530004,None,145.7663422530004,None,d,0.11134510000010778,145.7663422530004,None,145.89919504499994,None,,,,,,,,,,,,,sub-06,12/03/2002,2: Female,08/09/2023,002,1: right,2023_Sep_08_1750,[FINAL]_fmri_multiplication,2021.2.3,59.96967405503158
block5.xlsx,104.7,7.5,6.4,7 x 7,49,18,7 x 7 = 49,large-sized_low-interference,large-sized,low-interference,7,CorrectRESP,a,0,0,0,0,0,7,7,7,,,,,,,,,,,,,,,149.39746128099978,None,149.89999268000065,None,151.89984369000013,None,152.65012699999897,None,152.89984583499972,None,152.89984583499972,None,a,0,0.5059237370005576,152.89984583499972,None,153.43249014100002,None,153.43249014100002,None,d,0.3012037420012348,153.43249014100002,None,153.76614293499915,None,,,,,,,,,,,,,sub-06,12/03/2002,2: Female,08/09/2023,002,1: right,2023_Sep_08_1750,[FINAL]_fmri_multiplication,2021.2.3,59.96967405503158
block5.xlsx,118.6,7.5,3.2,8 x 5,45,21,5 x 8 = 45,large-sized_high-interference,large-sized,high-interference,9,IncorrectRESP,d,0,0,0,0,0,8,8,8,,,,,,,,,,,,,,,160.16601337700013,None,160.66522119599904,None,162.66605878600058,None,163.4158530170007,None,163.66632624399972,None,163.66632624399972,None,d,0,0.44337601699953666,163.66632624399972,None,164.13219054599904,None,164.13219054599904,None,d,0.089599017,164.13219054599904,None,164.2493738989997,None,,,,,,,,,,,,,sub-06,12/03/2002,2: Female,08/09/2023,002,1: right,2023_Sep_08_1750,[FINAL]_fmri_multiplication,2021.2.3,59.96967405503158
block5.xlsx,129.3,7.5,6.8,5 x 4,20,8,4 x 5 = 20,small-sized_high-interference,small-sized,high-interference,8,CorrectRESP,a,0,0,0,0,0,9,9,9,,,,,,,,,,,,,,,167.4488556209999,None,167.94903785899987,None,169.9491982189993,None,170.6993250710002,None,170.9495402930006,None,170.9495402930006,None,d,1,0.47222659600083716,170.9495402930006,None,171.44915851299993,None,171.44915851299993,None,d,0.34867717399902176,171.44915851299993,None,171.81568266499926,None,,,,,,,,,,,,,sub-06,12/03/2002,2: Female,08/09/2023,002,1: right,2023_Sep_08_1750,[FINAL]_fmri_multiplication,2021.2.3,59.96967405503158
block5.xlsx,143.6,7.5,5.5,6 x 5,30,14,5 x 6 = 30,large-sized_low-interference,large-sized,low-interference,6,CorrectRESP,a,0,0,0,0,0,10,10,10,,,,,,,,,,,,,,,178.6158622189996,None,179.11603513000045,None,181.11620119200052,None,181.86618389400064,None,182.11629646999972,None,182.11629646999972,None,a,0,0.40938948599978175,182.11629646999972,None,182.54928233700048,None,182.54928233700048,None,d,0.3284243830003106,182.54928233700048,None,182.8992316519998,None,,,,,,,,,,,,,sub-06,12/03/2002,2: Female,08/09/2023,002,1: right,2023_Sep_08_1750,[FINAL]_fmri_multiplication,2021.2.3,59.96967405503158
block5.xlsx,156.6,7.5,6,3 x 7,24,11,7 x 3 = 24,small-sized_high-interference,small-sized,high-interference,13,IncorrectRESP,d,0,0,0,0,0,11,11,11,,,,,,,,,,,,,,,188.3994543,None,188.89955192699927,None,190.89952061700023,None,191.64970139099933,None,191.89939735999906,None,191.89939735999906,None,d,0,0.5543807630001538,191.89939735999906,None,192.4822099789999,None,192.4822099789999,None,d,0.091576855,192.4822099789999,None,192.59889467599896,None,,,,,,,,,,,,,sub-06,12/03/2002,2: Female,08/09/2023,002,1: right,2023_Sep_08_1750,[FINAL]_fmri_multiplication,2021.2.3,59.96967405503158
block5.xlsx,170.1,7.5,7.1,5 x 7,40,17,7 x 5 = 40,large-sized_low-interference,large-sized,low-interference,7,IncorrectRESP,d,0,0,0,0,0,12,12,12,,,,,,,,,,,,,,,198.5991467090007,None,199.09975936000046,None,201.09938834199966,None,201.8492943780002,None,202.10015859600026,None,202.10015859600026,None,d,0,0.513591686,202.10015859600026,None,202.63207667300048,None,202.63207667300048,None,d,0.06168765,202.63207667300048,None,202.71549150099963,None,,,,,,,,,,,,,sub-06,12/03/2002,2: Female,08/09/2023,002,1: right,2023_Sep_08_1750,[FINAL]_fmri_multiplication,2021.2.3,59.96967405503158
block5.xlsx,184.7,7.5,5.3,4 x 6,28,10,6 x 4 = 28,small-sized_high-interference,small-sized,high-interference,12,IncorrectRESP,d,0,0,0,0,0,13,13,13,,,,,,,,,,,,,,,209.81609305500024,None,210.3155929179993,None,212.31617371100037,None,213.06610801500028,None,213.31588953100072,None,213.31588953100072,None,d,0,0.505880293,213.31588953100072,None,213.84907104100057,None,213.84907104100057,None,d,0.10870632499972999,213.84907104100057,None,213.98242367700004,None,,,,,,,,,,,,,sub-06,12/03/2002,2: Female,08/09/2023,002,1: right,2023_Sep_08_1750,[FINAL]_fmri_multiplication,2021.2.3,59.96967405503158
block5.xlsx,197.5,7.5,4.2,2 x 7,14,1,7 x 2 = 14,small-sized_low-interference,small-sized,low-interference,4,CorrectRESP,a,0,0,0,0,0,14,14,14,,,,,,,,,,,,,,,219.27958780799963,None,219.7743201939993,None,221.78309377599908,None,222.53308451799967,None,222.78316162199917,None,222.78316162199917,None,a,0,0.46257126499949663,222.78316162199917,None,223.26598446800017,None,223.26598446800017,None,d,0.12378157599960105,223.26598446800017,None,223.41617077299998,None,,,,,,,,,,,,,sub-06,12/03/2002,2: Female,08/09/2023,002,1: right,2023_Sep_08_1750,[FINAL]_fmri_multiplication,2021.2.3,59.96967405503158
block5.xlsx,209.2,7.5,7.2,9 x 4,36,20,4 x 9 = 36,large-sized_high-interference,large-sized,high-interference,9,CorrectRESP,a,0,0,0,0,0,15,15,15,,,,,,,,,,,,,,,227.61626692500067,None,228.1158934949999,None,230.11670542299908,None,230.8654844720004,None,231.11582871899918,None,231.11582871899918,None,a,0,0.40981886299960024,231.11582871899918,None,231.54920634200062,None,231.54920634200062,None,d,0.12057327700131282,231.54920634200062,None,231.69938193599955,None,,,,,,,,,,,,,sub-06,12/03/2002,2: Female,08/09/2023,002,1: right,2023_Sep_08_1750,[FINAL]_fmri_multiplication,2021.2.3,59.96967405503158
block5.xlsx,223.9,7.5,4.3,4 x 4,20,4,4 x 4 = 20,small-sized_low-interference,small-sized,low-interference,5,IncorrectRESP,d,0,0,0,0,0,16,16,16,,,,,,,,,,,,,,,238.89954162699905,None,239.3989516599995,None,241.39909154199995,None,242.14924253400022,None,242.39929033899898,None,242.39929033899898,None,d,0,0.5503935699998692,242.39929033899898,None,242.98262916599924,None,242.98262916599924,None,d,0.079075635,242.98262916599924,None,243.08224588600024,None,,,,,,,,,,,,,sub-06,12/03/2002,2: Female,08/09/2023,002,1: right,2023_Sep_08_1750,[FINAL]_fmri_multiplication,2021.2.3,59.96967405503158
block5.xlsx,235.7,7.5,9.9,6 x 7,48,23,7 x 6 = 48,large-sized_high-interference,large-sized,high-interference,22,IncorrectRESP,d,0,0,0,0,0,17,17,17,,,,,,,,,,,,,,,247.38250809199963,None,247.88144252799975,None,249.88244067099913,None,250.63266102700072,None,250.88290905800022,None,250.88290905800022,None,d,0,0.48288490700178954,250.88290905800022,None,251.3828995749991,None,251.3828995749991,None,d,0.10277451500041934,251.3828995749991,None,251.5163742450004,None,,,,,,,,,,,,,sub-06,12/03/2002,2: Female,08/09/2023,002,1: right,2023_Sep_08_1750,[FINAL]_fmri_multiplication,2021.2.3,59.96967405503158
block5.xlsx,253.1,7.5,3.1,9 x 2,18,2,2 x 9 = 18,small-sized_low-interference,small-sized,low-interference,7,CorrectRESP,a,0,0,0,0,0,18,18,18,,,,,,,,,,,,,,,261.41599616200074,None,261.9162909940005,None,263.9161228079993,None,264.6661449160001,None,264.9159068459994,None,264.9159068459994,None,a,0,0.3857408799995028,264.9159068459994,None,265.3325402549999,None,265.3325402549999,None,d,0.097220904,265.3325402549999,None,265.4489716879998,None,,,,,,,,,,,,,sub-06,12/03/2002,2: Female,08/09/2023,002,1: right,2023_Sep_08_1750,[FINAL]_fmri_multiplication,2021.2.3,59.96967405503158
block5.xlsx,263.7,7.5,4.6,5 x 9,40,15,9 x 5 = 40,large-sized_low-interference,large-sized,low-interference,6,IncorrectRESP,d,0,0,0,0,0,19,19,19,,,,,,,,,,,,,,,268.5485052849999,None,269.04927027899976,None,271.04952511400006,None,271.79944236399933,None,272.0491316589996,None,272.0491316589996,None,d,0,0.5005037609989813,272.0491316589996,None,272.5822644559994,None,272.5822644559994,None,d,0.087408578,272.5822644559994,None,272.6995115110003,None,,,,,,,,,,,,,sub-06,12/03/2002,2: Female,08/09/2023,002,1: right,2023_Sep_08_1750,[FINAL]_fmri_multiplication,2021.2.3,59.96967405503158
block5.xlsx,275.8,7.5,3.9,7 x 8,63,22,8 x 7 = 63,large-sized_high-interference,large-sized,high-interference,9,IncorrectRESP,d,0,0,0,0,0,20,20,20,,,,,,,,,,,,,,,277.2994174310006,None,277.7991446249998,None,279.79898391499955,None,280.5493316230004,None,280.7994601949995,None,280.7994601949995,None,d,0,0.4383237250003731,280.7994601949995,None,281.26564405499994,None,281.26564405499994,None,d,0.10813283700008469,281.26564405499994,None,281.3991243,None,,,,,,,,,,,,,sub-06,12/03/2002,2: Female,08/09/2023,002,1: right,2023_Sep_08_1750,[FINAL]_fmri_multiplication,2021.2.3,59.96967405503158
block5.xlsx,287.2,7.5,7.4,4 x 3,15,9,3 x 4 = 15,small-sized_high-interference,small-sized,high-interference,10,IncorrectRESP,d,0,0,0,0,0,21,21,21,,,,,,,,,,,,,,,285.29936366400034,None,285.79928645399923,None,287.79946458799895,None,288.54982712200035,None,288.8170892340004,None,288.8170892340004,None,d,0,0.45256221300041943,288.8170892340004,None,289.2995091,None,289.2995091,None,d,0.12226556400128175,289.2995091,None,289.4498607120004,None,,,,,,,,,,,,,sub-06,12/03/2002,2: Female,08/09/2023,002,1: right,2023_Sep_08_1750,[FINAL]_fmri_multiplication,2021.2.3,59.96967405503158
block5.xlsx,302.1,7.5,7.1,4 x 8,32,24,8 x 4 = 32,large-sized_high-interference,large-sized,high-interference,25,CorrectRESP,a,0,0,0,0,0,22,22,22,,,,,,,,,,,,,,,296.84974693599906,None,297.34936696300065,None,299.35004528100035,None,300.09936345200003,None,300.34908466600064,None,300.34908466600064,None,a,0,0.42462646199965093,300.34908466600064,None,300.7994051559999,None,300.7994051559999,None,d,0.21435365500110493,300.7994051559999,None,301.0320865,None,,,,,,,,,,,,,sub-06,12/03/2002,2: Female,08/09/2023,002,1: right,2023_Sep_08_1750,[FINAL]_fmri_multiplication,2021.2.3,59.96967405503158
block5.xlsx,316.7,7.5,10.8,6 x 6,36,13,6 x 6 = 36,large-sized_low-interference,large-sized,low-interference,4,CorrectRESP,a,0,0,0,0,0,23,23,23,,,,,,,,,,,,,,,308.1328796479993,None,308.63238473399906,None,310.6322996479994,None,311.3827475779999,None,311.6323521,None,311.6323521,None,a,0,0.36542904500129225,311.6323521,None,312.01565697799924,None,312.01565697799924,None,d,0.1259818290000112,312.01565697799924,None,312.16553550199933,None,,,,,,,,,,,,,sub-06,12/03/2002,2: Female,08/09/2023,002,1: right,2023_Sep_08_1750,[FINAL]_fmri_multiplication,2021.2.3,59.96967405503158
block5.xlsx,,,,,,,,,,,,,,0,0,0,0,,,,,0,0,0,0,,,,,,,,,,,,,,,,,,,,,,,,,,,,,,,,,,,,,,322.96897161999914,None,322.96897161999914,None,,,,,,,,,sub-06,12/03/2002,2: Female,08/09/2023,002,1: right,2023_Sep_08_1750,[FINAL]_fmri_multiplication,2021.2.3,59.96967405503158
block5.xlsx,,,,,,,,,,,,,,0,0,0,0,,,,,1,0,1,0,,,,,,,,,,,,,,,,,,,,,,,,,,,,,,,,,,,,,,323.9851501909998,None,323.9851501909998,None,,,,,,,,,sub-06,12/03/2002,2: Female,08/09/2023,002,1: right,2023_Sep_08_1750,[FINAL]_fmri_multiplication,2021.2.3,59.96967405503158
block5.xlsx,,,,,,,,,,,,,,0,0,0,0,,,,,2,0,2,0,,,,,,,,,,,,,,,,,,,,,,,,,,,,,,,,,,,,,,324.98320903999956,None,324.98320903999956,None,,,,,,,,,sub-06,12/03/2002,2: Female,08/09/2023,002,1: right,2023_Sep_08_1750,[FINAL]_fmri_multiplication,2021.2.3,59.96967405503158
block5.xlsx,,,,,,,,,,,,,,0,0,0,0,,,,,3,0,3,0,,,,,,,,,,,,,,,,,,,,,,,,,,,,,,,,,,,,,,325.98426573399956,None,325.98426573399956,None,,,,,,,,,sub-06,12/03/2002,2: Female,08/09/2023,002,1: right,2023_Sep_08_1750,[FINAL]_fmri_multiplication,2021.2.3,59.96967405503158
block5.xlsx,,,,,,,,,,,,,,0,0,0,0,,,,,4,0,4,0,,,,,,,,,,,,,,,,,,,,,,,,,,,,,,,,,,,,,,326.98442634099956,None,326.98442634099956,None,,,,,,,,,sub-06,12/03/2002,2: Female,08/09/2023,002,1: right,2023_Sep_08_1750,[FINAL]_fmri_multiplication,2021.2.3,59.96967405503158
block5.xlsx,,,,,,,,,,,,,,0,0,0,0,,,,,5,0,5,0,,,,,,,,,,,,,,,,,,,,,,,,,,,,,,,,,,,,,,327.9837799880006,None,327.9837799880006,None,,,,,,,,,sub-06,12/03/2002,2: Female,08/09/2023,002,1: right,2023_Sep_08_1750,[FINAL]_fmri_multiplication,2021.2.3,59.96967405503158
block5.xlsx,,,,,,,,,,,,,,0,0,0,0,,,,,6,0,6,0,,,,,,,,,,,,,,,,,,,,,,,,,,,,,,,,,,,,,,328.98247103599897,None,328.98247103599897,None,,,,,,,,,sub-06,12/03/2002,2: Female,08/09/2023,002,1: right,2023_Sep_08_1750,[FINAL]_fmri_multiplication,2021.2.3,59.96967405503158
block5.xlsx,,,,,,,,,,,,,,0,0,0,0,,,,,7,0,7,0,,,,,,,,,,,,,,,,,,,,,,,,,,,,,,,,,,,,,,329.9825118030003,None,329.9825118030003,None,,,,,,,,,sub-06,12/03/2002,2: Female,08/09/2023,002,1: right,2023_Sep_08_1750,[FINAL]_fmri_multiplication,2021.2.3,59.96967405503158
block5.xlsx,,,,,,,,,,,,,,0,0,0,0,,,,,8,0,8,0,,,,,,,,,,,,,,,,,,,,,,,,,,,,,,,,,,,,,,330.9829878919991,None,330.9829878919991,None,,,,,,,,,sub-06,12/03/2002,2: Female,08/09/2023,002,1: right,2023_Sep_08_1750,[FINAL]_fmri_multiplication,2021.2.3,59.96967405503158
block5.xlsx,,,,,,,,,,,,,,0,0,0,0,,,,,9,0,9,0,,,,,,,,,,,,,,,,,,,,,,,,,,,,,,,,,,,,,,331.98513683999954,None,331.98513683999954,None,,,,,,,,,sub-06,12/03/2002,2: Female,08/09/2023,002,1: right,2023_Sep_08_1750,[FINAL]_fmri_multiplication,2021.2.3,59.96967405503158
block5.xlsx,,,,,,,,,,,,,,0,0,0,0,,,,,10,0,10,0,,,,,,,,,,,,,,,,,,,,,,,,,,,,,,,,,,,,,,332.98295601000063,None,332.98295601000063,None,,,,,,,,,sub-06,12/03/2002,2: Female,08/09/2023,002,1: right,2023_Sep_08_1750,[FINAL]_fmri_multiplication,2021.2.3,59.96967405503158
block5.xlsx,,,,,,,,,,,,,,0,0,0,0,,,,,11,0,11,0,,,,,,,,,,,,,,,,,,,,,,,,,,,,,,,,,,,,,,333.98221305399966,None,333.98221305399966,None,,,,,,,,,sub-06,12/03/2002,2: Female,08/09/2023,002,1: right,2023_Sep_08_1750,[FINAL]_fmri_multiplication,2021.2.3,59.96967405503158
block5.xlsx,,,,,,,,,,,,,,0,0,0,0,,,,,12,0,12,0,,,,,,,,,,,,,,,,,,,,,,,,,,,,,,,,,,,,,,334.98336141300024,None,334.98336141300024,None,,,,,,,,,sub-06,12/03/2002,2: Female,08/09/2023,002,1: right,2023_Sep_08_1750,[FINAL]_fmri_multiplication,2021.2.3,59.96967405503158
block5.xlsx,,,,,,,,,,,,,,0,0,0,0,,,,,13,0,13,0,,,,,,,,,,,,,,,,,,,,,,,,,,,,,,,,,,,,,,335.9823086510005,None,335.9823086510005,None,,,,,,,,,sub-06,12/03/2002,2: Female,08/09/2023,002,1: right,2023_Sep_08_1750,[FINAL]_fmri_multiplication,2021.2.3,59.96967405503158
block5.xlsx,,,,,,,,,,,,,,0,0,0,0,,,,,14,0,14,0,,,,,,,,,,,,,,,,,,,,,,,,,,,,,,,,,,,,,,336.9825275259991,None,336.9825275259991,None,,,,,,,,,sub-06,12/03/2002,2: Female,08/09/2023,002,1: right,2023_Sep_08_1750,[FINAL]_fmri_multiplication,2021.2.3,59.96967405503158
block5.xlsx,,,,,,,,,,,,,,0,0,0,0,,,,,15,0,15,0,,,,,,,,,,,,,,,,,,,,,,,,,,,,,,,,,,,,,,337.9826479629992,None,337.9826479629992,None,,,,,,,,,sub-06,12/03/2002,2: Female,08/09/2023,002,1: right,2023_Sep_08_1750,[FINAL]_fmri_multiplication,2021.2.3,59.96967405503158
block5.xlsx,,,,,,,,,,,,,,0,0,0,0,,,,,16,0,16,0,,,,,,,,,,,,,,,,,,,,,,,,,,,,,,,,,,,,,,338.98303851499986,None,338.98303851499986,None,,,,,,,,,sub-06,12/03/2002,2: Female,08/09/2023,002,1: right,2023_Sep_08_1750,[FINAL]_fmri_multiplication,2021.2.3,59.96967405503158
block5.xlsx,,,,,,,,,,,,,,0,0,0,0,,,,,17,0,17,0,,,,,,,,,,,,,,,,,,,,,,,,,,,,,,,,,,,,,,339.9828205190006,None,339.9828205190006,None,,,,,,,,,sub-06,12/03/2002,2: Female,08/09/2023,002,1: right,2023_Sep_08_1750,[FINAL]_fmri_multiplication,2021.2.3,59.96967405503158
block5.xlsx,,,,,,,,,,,,,,0,0,0,0,,,,,18,0,18,0,,,,,,,,,,,,,,,,,,,,,,,,,,,,,,,,,,,,,,340.98270223299915,None,340.98270223299915,None,,,,,,,,,sub-06,12/03/2002,2: Female,08/09/2023,002,1: right,2023_Sep_08_1750,[FINAL]_fmri_multiplication,2021.2.3,59.96967405503158
block5.xlsx,,,,,,,,,,,,,,0,0,0,0,,,,,19,0,19,0,,,,,,,,,,,,,,,,,,,,,,,,,,,,,,,,,,,,,,341.9836523949998,None,341.9836523949998,None,,,,,,,,,sub-06,12/03/2002,2: Female,08/09/2023,002,1: right,2023_Sep_08_1750,[FINAL]_fmri_multiplication,2021.2.3,59.96967405503158
block5.xlsx,,,,,,,,,,,,,,0,0,0,0,,,,,20,0,20,0,,,,,,,,,,,,,,,,,,,,,,,,,,,,,,,,,,,,,,342.98214985899904,None,342.98214985899904,None,,,,,,,,,sub-06,12/03/2002,2: Female,08/09/2023,002,1: right,2023_Sep_08_1750,[FINAL]_fmri_multiplication,2021.2.3,59.96967405503158
block5.xlsx,,,,,,,,,,,,,,0,0,0,0,,,,,21,0,21,0,,,,,,,,,,,,,,,,,,,,,,,,,,,,,,,,,,,,,,343.9826265190004,None,343.9826265190004,None,,,,,,,,,sub-06,12/03/2002,2: Female,08/09/2023,002,1: right,2023_Sep_08_1750,[FINAL]_fmri_multiplication,2021.2.3,59.96967405503158
block5.xlsx,,,,,,,,,,,,,,0,0,0,0,,,,,22,0,22,0,,,,,,,,,,,,,,,,,,,,,,,,,,,,,,,,,,,,,,344.9826399049998,None,344.9826399049998,None,,,,,,,,,sub-06,12/03/2002,2: Female,08/09/2023,002,1: right,2023_Sep_08_1750,[FINAL]_fmri_multiplication,2021.2.3,59.96967405503158
block5.xlsx,,,,,,,,,,,,,,0,0,0,0,,,,,23,0,23,0,,,,,,,,,,,,,,,,,,,,,,,,,,,,,,,,,,,,,,345.98239883399947,None,345.98239883399947,None,,,,,,,,,sub-06,12/03/2002,2: Female,08/09/2023,002,1: right,2023_Sep_08_1750,[FINAL]_fmri_multiplication,2021.2.3,59.96967405503158
block5.xlsx,,,,,,,,,,,,,,0,0,0,0,,,,,24,0,24,0,,,,,,,,,,,,,,,,,,,,,,,,,,,,,,,,,,,,,,346.9826198390001,None,346.9826198390001,None,,,,,,,,,sub-06,12/03/2002,2: Female,08/09/2023,002,1: right,2023_Sep_08_1750,[FINAL]_fmri_multiplication,2021.2.3,59.96967405503158
block5.xlsx,,,,,,,,,,,,,,0,0,0,0,,,,,25,0,25,0,,,,,,,,,,,,,,,,,,,,,,,,,,,,,,,,,,,,,,347.98287387600067,None,347.98287387600067,None,,,,,,,,,sub-06,12/03/2002,2: Female,08/09/2023,002,1: right,2023_Sep_08_1750,[FINAL]_fmri_multiplication,2021.2.3,59.96967405503158
block5.xlsx,,,,,,,,,,,,,,0,0,0,0,,,,,26,0,26,0,,,,,,,,,,,,,,,,,,,,,,,,,,,,,,,,,,,,,,348.9826808500002,None,348.9826808500002,None,,,,,,,,,sub-06,12/03/2002,2: Female,08/09/2023,002,1: right,2023_Sep_08_1750,[FINAL]_fmri_multiplication,2021.2.3,59.96967405503158
block5.xlsx,,,,,,,,,,,,,,0,0,0,0,,,,,27,0,27,0,,,,,,,,,,,,,,,,,,,,,,,,,,,,,,,,,,,,,,349.9823297540006,None,349.9823297540006,None,,,,,,,,,sub-06,12/03/2002,2: Female,08/09/2023,002,1: right,2023_Sep_08_1750,[FINAL]_fmri_multiplication,2021.2.3,59.96967405503158
block5.xlsx,,,,,,,,,,,,,,0,0,0,0,,,,,28,0,28,0,,,,,,,,,,,,,,,,,,,,,,,,,,,,,,,,,,,,,,350.98277650599994,None,350.98277650599994,None,,,,,,,,,sub-06,12/03/2002,2: Female,08/09/2023,002,1: right,2023_Sep_08_1750,[FINAL]_fmri_multiplication,2021.2.3,59.96967405503158
block5.xlsx,,,,,,,,,,,,,,0,0,0,0,,,,,29,0,29,0,,,,,,,,,,,,,,,,,,,,,,,,,,,,,,,,,,,,,,351.9826880359997,None,351.9826880359997,None,,,,,,,,,sub-06,12/03/2002,2: Female,08/09/2023,002,1: right,2023_Sep_08_1750,[FINAL]_fmri_multiplication,2021.2.3,59.96967405503158
block5.xlsx,,,,,,,,,,,,,,0,0,0,0,,,,,,,,,,,,,,,,,,,,,,,,,,,,,,,,,,,,,,,,,,,,,,,,,,,,,,,,,,sub-06,12/03/2002,2: Female,08/09/2023,002,1: right,2023_Sep_08_1750,[FINAL]_fmri_multiplication,2021.2.3,59.96967405503158
block6.xlsx,10,7.5,4.1,6 x 5,36,14,5 x 6 = 36,large-sized_low-interference,large-sized,low-interference,6,IncorrectRESP,d,0,1,1,1,0,0,0,0,,,,,,,,,,,,,352.9835189259993,None,363.0044283110001,None,363.48318275100064,None,365.4831491469995,None,366.23312776700004,None,366.48312459299996,None,366.48312459299996,None,d,0,0.4266054149993579,366.48312459299996,None,366.9323397669996,None,366.9323397669996,None,d,0.12143488400033675,366.9323397669996,None,367.08305630500035,None,,,,,,,,,,,,,sub-06,12/03/2002,2: Female,08/09/2023,002,1: right,2023_Sep_08_1750,[FINAL]_fmri_multiplication,2021.2.3,59.96967405503158
block6.xlsx,21.6,7.5,7.2,2 x 6,10,6,6 x 2 = 10,small-sized_low-interference,small-sized,low-interference,3,IncorrectRESP,d,0,1,1,1,0,1,1,1,,,,,,,,,,,,,,,371.18272751599943,None,371.68252328500057,None,373.6827501019998,None,374.4321087589997,None,374.6828953160002,None,374.6828953160002,None,d,0,0.41876573099943926,374.6828953160002,None,375.13270558600016,None,375.13270558600016,None,d,0.11301273800017952,375.13270558600016,None,375.265686,None,,,,,,,,,,,,,sub-06,12/03/2002,2: Female,08/09/2023,002,1: right,2023_Sep_08_1750,[FINAL]_fmri_multiplication,2021.2.3,59.96967405503158
block6.xlsx,36.3,7.5,13.8,6 x 7,42,23,7 x 6 = 42,large-sized_high-interference,large-sized,high-interference,22,CorrectRESP,a,0,1,1,1,0,2,2,2,,,,,,,,,,,,,,,382.46609549300047,None,382.96584090099896,None,384.96595803299897,None,385.7160545,None,385.9660399780005,None,385.9660399780005,None,a,0,0.44765059200108226,385.9660399780005,None,386.43095388800066,None,386.43095388800066,None,d,0.1267852139990282,386.43095388800066,None,386.5825378970003,None,,,,,,,,,,,,,sub-06,12/03/2002,2: Female,08/09/2023,002,1: right,2023_Sep_08_1750,[FINAL]_fmri_multiplication,2021.2.3,59.96967405503158
block6.xlsx,57.6,7.5,3.7,3 x 7,21,11,7 x 3 = 21,small-sized_high-interference,small-sized,high-interference,13,CorrectRESP,a,0,1,1,1,0,3,3,3,,,,,,,,,,,,,,,400.3792766730003,None,400.87482010200074,None,402.8830637489991,None,403.63278783200076,None,403.8831087609997,None,403.8831087609997,None,a,0,0.5226622499994846,403.8831087609997,None,404.43224213400026,None,404.43224213400026,None,d,0.11743405400011397,404.43224213400026,None,404.5827888,None,,,,,,,,,,,,,sub-06,12/03/2002,2: Female,08/09/2023,002,1: right,2023_Sep_08_1750,[FINAL]_fmri_multiplication,2021.2.3,59.96967405503158
block6.xlsx,68.8,7.5,7.8,2 x 7,12,1,7 x 2 = 12,small-sized_low-interference,small-sized,low-interference,4,IncorrectRESP,d,0,1,1,1,0,4,4,4,,,,,,,,,,,,,,,408.2829556460001,None,408.7826543560004,None,410.7827549880003,None,411.53274712799976,None,411.78271978799967,None,411.78271978799967,None,d,0,0.4390674019996368,411.78271978799967,None,412.2492059899996,None,412.2492059899996,None,d,0.10047260999999708,412.2492059899996,None,412.38275659600004,None,,,,,,,,,,,,,sub-06,12/03/2002,2: Female,08/09/2023,002,1: right,2023_Sep_08_1750,[FINAL]_fmri_multiplication,2021.2.3,59.96967405503158
block6.xlsx,84.1,7.5,8.6,3 x 9,24,19,9 x 3 = 24,large-sized_high-interference,large-sized,high-interference,9,IncorrectRESP,d,0,1,1,1,0,5,5,5,,,,,,,,,,,,,,,420.18251593400055,None,420.68284422000033,None,422.6823503350006,None,423.432438,None,423.68262483500075,None,423.68262483500075,None,d,0,0.43506479800089437,423.68262483500075,None,424.1489882149999,None,424.1489882149999,None,d,0.1126798309996957,424.1489882149999,None,424.2823744969992,None,,,,,,,,,,,,,sub-06,12/03/2002,2: Female,08/09/2023,002,1: right,2023_Sep_08_1750,[FINAL]_fmri_multiplication,2021.2.3,59.96967405503158
block6.xlsx,100.2,7.5,3.3,4 x 6,24,10,6 x 4 = 24,small-sized_high-interference,small-sized,high-interference,12,CorrectRESP,a,0,1,1,1,0,6,6,6,,,,,,,,,,,,,,,432.87990983800046,None,433.3960005890003,None,435.39981124800033,None,436.1495723799999,None,436.39954460599984,None,436.39954460599984,None,a,0,0.42222894199949224,436.39954460599984,None,436.84898012600024,None,436.84898012600024,None,d,0.12479617800090637,436.84898012600024,None,436.99908194599993,None,,,,,,,,,,,,,sub-06,12/03/2002,2: Female,08/09/2023,002,1: right,2023_Sep_08_1750,[FINAL]_fmri_multiplication,2021.2.3,59.96967405503158
block6.xlsx,111,7.5,6.3,9 x 2,16,2,2 x 9 = 16,small-sized_low-interference,small-sized,low-interference,7,IncorrectRESP,d,0,1,1,1,0,7,7,7,,,,,,,,,,,,,,,440.2992185160001,None,440.7992861879993,None,442.79968916600046,None,443.5493974919991,None,443.7992999140006,None,443.7992999140006,None,d,0,0.4703275939991727,443.7992999140006,None,444.2995595129996,None,444.2995595129996,None,d,0.11417081900071935,444.2995595129996,None,444.4321903229993,None,,,,,,,,,,,,,sub-06,12/03/2002,2: Female,08/09/2023,002,1: right,2023_Sep_08_1750,[FINAL]_fmri_multiplication,2021.2.3,59.96967405503158
block6.xlsx,124.8,7.5,3.1,6 x 6,30,13,6 x 6 = 30,large-sized_low-interference,large-sized,low-interference,4,IncorrectRESP,d,0,1,1,1,0,8,8,8,,,,,,,,,,,,,,,450.7327453990001,None,451.232747,None,453.23258579699905,None,453.9824632,None,454.23299135900015,None,454.23299135900015,None,d,0,0.5166664799999126,454.23299135900015,None,454.7826264569994,None,454.7826264569994,None,d,0.11103376699975342,454.7826264569994,None,454.9154597979996,None,,,,,,,,,,,,,sub-06,12/03/2002,2: Female,08/09/2023,002,1: right,2023_Sep_08_1750,[FINAL]_fmri_multiplication,2021.2.3,59.96967405503158
block6.xlsx,135.4,7.5,2.7,5 x 4,16,8,4 x 5 = 16,small-sized_high-interference,small-sized,high-interference,8,IncorrectRESP,d,0,1,1,1,0,9,9,9,,,,,,,,,,,,,,,458.01601921600013,None,458.51585638399956,None,460.51626464199944,None,461.2658355709991,None,461.51603033100037,None,461.51603033100037,None,d,0,0.43362042999979167,461.51603033100037,None,461.98273321799934,None,461.98273321799934,None,d,0.10293360200012103,461.98273321799934,None,462.1163273479997,None,,,,,,,,,,,,,sub-06,12/03/2002,2: Female,08/09/2023,002,1: right,2023_Sep_08_1750,[FINAL]_fmri_multiplication,2021.2.3,59.96967405503158
block6.xlsx,145.6,7.5,5.1,5 x 5,25,3,5 x 5 = 25,small-sized_low-interference,small-sized,low-interference,3,CorrectRESP,a,0,1,1,1,0,10,10,10,,,,,,,,,,,,,,,464.8250672310005,None,465.3240110450006,None,467.3331716529992,None,468.08315740500075,None,468.3339615149998,None,468.3339615149998,None,a,0,0.43978081600107544,468.3339615149998,None,468.7990379309995,None,468.7990379309995,None,d,0.2946963759986829,468.7990379309995,None,469.11599960700005,None,,,,,,,,,,,,,sub-06,12/03/2002,2: Female,08/09/2023,002,1: right,2023_Sep_08_1750,[FINAL]_fmri_multiplication,2021.2.3,59.96967405503158
block6.xlsx,158.2,7.5,2.9,7 x 7,56,18,7 x 7 = 56,large-sized_low-interference,large-sized,low-interference,7,IncorrectRESP,d,0,1,1,1,0,11,11,11,,,,,,,,,,,,,,,474.2162508340007,None,474.71609204999913,None,476.71598326799904,None,477.4654378029991,None,477.7160652570001,None,477.7160652570001,None,d,0,0.38558859300064796,477.7160652570001,None,478.1327026500003,None,478.1327026500003,None,d,0.11300227800165885,478.1327026500003,None,478.26582496399897,None,,,,,,,,,,,,,sub-06,12/03/2002,2: Female,08/09/2023,002,1: right,2023_Sep_08_1750,[FINAL]_fmri_multiplication,2021.2.3,59.96967405503158
block6.xlsx,168.6,7.5,5.7,3 x 6,15,7,6 x 3 = 15,small-sized_high-interference,small-sized,high-interference,8,IncorrectRESP,d,0,1,1,1,0,12,12,12,,,,,,,,,,,,,,,481.1660717140003,None,481.6661905559995,None,483.6655587839996,None,484.4158108539996,None,484.66587759200047,None,484.66587759200047,None,d,0,0.40382811699964805,484.66587759200047,None,485.0991106290003,None,485.0991106290003,None,d,0.098641381,485.0991106290003,None,485.21560356400005,None,,,,,,,,,,,,,sub-06,12/03/2002,2: Female,08/09/2023,002,1: right,2023_Sep_08_1750,[FINAL]_fmri_multiplication,2021.2.3,59.96967405503158
block6.xlsx,181.8,7.5,3,2 x 8,16,5,8 x 2 = 16,small-sized_low-interference,small-sized,low-interference,7,CorrectRESP,a,0,1,1,1,0,13,13,13,,,,,,,,,,,,,,,490.91567066899916,None,491.4156657700005,None,493.41542663700056,None,494.16593842600014,None,494.4156021109993,None,494.4156021109993,None,a,0,0.4540273820002767,494.4156021109993,None,494.8989794249992,None,494.8989794249992,None,d,0.12279393900098512,494.8989794249992,None,495.04954801299937,None,,,,,,,,,,,,,sub-06,12/03/2002,2: Female,08/09/2023,002,1: right,2023_Sep_08_1750,[FINAL]_fmri_multiplication,2021.2.3,59.96967405503158
block6.xlsx,192.3,7.5,5.9,5 x 9,45,15,9 x 5 = 45,large-sized_low-interference,large-sized,low-interference,6,CorrectRESP,a,0,1,1,1,0,14,14,14,,,,,,,,,,,,,,,498.0491848,None,498.5498140439995,None,500.5464738110004,None,501.2881169499997,None,501.53489544399963,None,501.53489544399963,None,a,0,0.4548717599991505,501.53489544399963,None,502.01594613700036,None,502.01594613700036,None,d,0.44573950699850684,502.01594613700036,None,502.48259501400025,None,,,,,,,,,,,,,sub-06,12/03/2002,2: Female,08/09/2023,002,1: right,2023_Sep_08_1750,[FINAL]_fmri_multiplication,2021.2.3,59.96967405503158
block6.xlsx,205.7,7.5,2.1,4 x 3,12,9,3 x 4 = 12,small-sized_high-interference,small-sized,high-interference,10,CorrectRESP,a,0,1,1,1,0,15,15,15,,,,,,,,,,,,,,,508.3830322020003,None,508.8828789859999,None,510.8825409609999,None,511.63265866000074,None,511.8824724040005,None,511.8824724040005,None,d,1,0.39522464199944807,511.8824724040005,None,512.2990160280006,None,512.2990160280006,None,d,0.20265566399939416,512.2990160280006,None,512.5325374389995,None,,,,,,,,,,,,,sub-06,12/03/2002,2: Female,08/09/2023,002,1: right,2023_Sep_08_1750,[FINAL]_fmri_multiplication,2021.2.3,59.96967405503158
block6.xlsx,215.3,7.5,9.9,7 x 8,56,22,8 x 7 = 56,large-sized_high-interference,large-sized,high-interference,9,CorrectRESP,a,0,1,1,1,0,16,16,16,,,,,,,,,,,,,,,514.6320943619994,None,515.1324737659997,None,517.1326840229995,None,517.8827171009998,None,518.1325005529998,None,518.1325005529998,None,a,0,0.3851431330003834,518.1325005529998,None,518.5493686610007,None,518.5493686610007,None,d,0.11233122300109244,518.5493686610007,None,518.6822178380007,None,,,,,,,,,,,,,sub-06,12/03/2002,2: Female,08/09/2023,002,1: right,2023_Sep_08_1750,[FINAL]_fmri_multiplication,2021.2.3,59.96967405503158
block6.xlsx,232.7,7.5,2.2,8 x 3,21,12,3 x 8 = 21,small-sized_high-interference,small-sized,high-interference,13,IncorrectRESP,d,0,1,1,1,0,17,17,17,,,,,,,,,,,,,,,528.5825379060007,None,529.0813502,None,531.0828232820004,None,531.8329225849993,None,532.0831904589995,None,532.0831904589995,None,d,0,0.5785013859986066,532.0831904589995,None,532.6825480949992,None,532.6825480949992,None,d,0.10726484199949482,532.6825480949992,None,532.8160145689999,None,,,,,,,,,,,,,sub-06,12/03/2002,2: Female,08/09/2023,002,1: right,2023_Sep_08_1750,[FINAL]_fmri_multiplication,2021.2.3,59.96967405503158
block6.xlsx,242.4,7.5,7.9,9 x 9,81,16,9 x 9 = 81,large-sized_low-interference,large-sized,low-interference,6,CorrectRESP,a,0,1,1,1,0,18,18,18,,,,,,,,,,,,,,,535.0200615100002,None,535.5331218909996,None,537.5331118409995,None,538.2831779869994,None,538.5331011889994,None,538.5331011889994,None,a,0,0.48075237199918774,538.5331011889994,None,539.0334696739992,None,539.0334696739992,None,d,0.12430403200050932,539.0334696739992,None,539.1828404129992,None,,,,,,,,,,,,,sub-06,12/03/2002,2: Female,08/09/2023,002,1: right,2023_Sep_08_1750,[FINAL]_fmri_multiplication,2021.2.3,59.96967405503158
block6.xlsx,257.8,7.5,8.3,9 x 4,32,20,4 x 9 = 32,large-sized_high-interference,large-sized,high-interference,9,IncorrectRESP,d,0,1,1,1,0,19,19,19,,,,,,,,,,,,,,,547.0827826580007,None,547.5820273619993,None,549.5827816580004,None,550.3329082750006,None,550.5829121799998,None,550.5829121799998,None,d,0,0.4947438580002199,550.5829121799998,None,551.0988610629993,None,551.0988610629993,None,d,0.13089461700110405,551.0988610629993,None,551.2489081629992,None,,,,,,,,,,,,,sub-06,12/03/2002,2: Female,08/09/2023,002,1: right,2023_Sep_08_1750,[FINAL]_fmri_multiplication,2021.2.3,59.96967405503158
block6.xlsx,273.6,7.5,12.1,5 x 7,35,17,7 x 5 = 35,large-sized_low-interference,large-sized,low-interference,7,CorrectRESP,a,0,1,1,1,0,20,20,20,,,,,,,,,,,,,,,559.5494825,None,560.0492803470006,None,562.0494406189991,None,562.7991011809991,None,563.0494903,None,563.0494903,None,a,0,0.4921700340000825,563.0494903,None,563.5648486369992,None,563.5648486369992,None,d,0.10493533900080365,563.5648486369992,None,563.6993700879993,None,,,,,,,,,,,,,sub-06,12/03/2002,2: Female,08/09/2023,002,1: right,2023_Sep_08_1750,[FINAL]_fmri_multiplication,2021.2.3,59.96967405503158
block6.xlsx,293.2,7.5,4.1,4 x 8,28,24,8 x 4 = 28,large-sized_high-interference,large-sized,high-interference,25,IncorrectRESP,d,0,1,1,1,0,21,21,21,,,,,,,,,,,,,,,575.7960148,None,576.2997205449992,None,578.2996199,None,579.0494548459992,None,579.3000237430006,None,579.3000237430006,None,d,0,0.5616429969995806,579.3000237430006,None,579.8821871540003,None,579.8821871540003,None,d,0.11556695400031458,579.8821871540003,None,580.0157286609992,None,,,,,,,,,,,,,sub-06,12/03/2002,2: Female,08/09/2023,002,1: right,2023_Sep_08_1750,[FINAL]_fmri_multiplication,2021.2.3,59.96967405503158
block6.xlsx,304.8,7.5,6.7,4 x 4,16,4,4 x 4 = 16,small-sized_low-interference,small-sized,low-interference,5,CorrectRESP,a,0,1,1,1,0,22,22,22,,,,,,,,,,,,,,,584.1156758840007,None,584.6158019039995,None,586.6157043490002,None,587.3661240719994,None,587.6156952,None,587.6156952,None,a,0,0.44604165500095405,587.6156952,None,588.0823023,None,588.0823023,None,d,0.12350697000147193,588.0823023,None,588.2321231829992,None,,,,,,,,,,,,,sub-06,12/03/2002,2: Female,08/09/2023,002,1: right,2023_Sep_08_1750,[FINAL]_fmri_multiplication,2021.2.3,59.96967405503158
block6.xlsx,319,7.5,8.5,8 x 5,40,21,5 x 8 = 40,large-sized_high-interference,large-sized,high-interference,9,CorrectRESP,a,0,1,1,1,0,23,23,23,,,,,,,,,,,,,,,594.9323145830003,None,595.4328522729993,None,597.4328268549998,None,598.1825708479992,None,598.4326961709994,None,598.4326961709994,None,a,0,0.46101746000022104,598.4326961709994,None,598.9155760329995,None,598.9155760329995,None,d,0.11419278100038355,598.9155760329995,None,599.0490039489996,None,,,,,,,,,,,,,sub-06,12/03/2002,2: Female,08/09/2023,002,1: right,2023_Sep_08_1750,[FINAL]_fmri_multiplication,2021.2.3,59.96967405503158
block6.xlsx,,,,,,,,,,,,,,0,1,1,1,,,,,0,0,0,0,,,,,,,,,,,,,,,,,,,,,,,,,,,,,,,,,,,,,,607.5529547269998,None,607.5529547269998,None,,,,,,,,,sub-06,12/03/2002,2: Female,08/09/2023,002,1: right,2023_Sep_08_1750,[FINAL]_fmri_multiplication,2021.2.3,59.96967405503158
block6.xlsx,,,,,,,,,,,,,,0,1,1,1,,,,,1,0,1,0,,,,,,,,,,,,,,,,,,,,,,,,,,,,,,,,,,,,,,608.5673567319991,None,608.5673567319991,None,,,,,,,,,sub-06,12/03/2002,2: Female,08/09/2023,002,1: right,2023_Sep_08_1750,[FINAL]_fmri_multiplication,2021.2.3,59.96967405503158
block6.xlsx,,,,,,,,,,,,,,0,1,1,1,,,,,2,0,2,0,,,,,,,,,,,,,,,,,,,,,,,,,,,,,,,,,,,,,,609.5678564579994,None,609.5678564579994,None,,,,,,,,,sub-06,12/03/2002,2: Female,08/09/2023,002,1: right,2023_Sep_08_1750,[FINAL]_fmri_multiplication,2021.2.3,59.96967405503158
block6.xlsx,,,,,,,,,,,,,,0,1,1,1,,,,,3,0,3,0,,,,,,,,,,,,,,,,,,,,,,,,,,,,,,,,,,,,,,610.566578,None,610.566578,None,,,,,,,,,sub-06,12/03/2002,2: Female,08/09/2023,002,1: right,2023_Sep_08_1750,[FINAL]_fmri_multiplication,2021.2.3,59.96967405503158
block6.xlsx,,,,,,,,,,,,,,0,1,1,1,,,,,4,0,4,0,,,,,,,,,,,,,,,,,,,,,,,,,,,,,,,,,,,,,,611.5689800229993,None,611.5689800229993,None,,,,,,,,,sub-06,12/03/2002,2: Female,08/09/2023,002,1: right,2023_Sep_08_1750,[FINAL]_fmri_multiplication,2021.2.3,59.96967405503158
block6.xlsx,,,,,,,,,,,,,,0,1,1,1,,,,,5,0,5,0,,,,,,,,,,,,,,,,,,,,,,,,,,,,,,,,,,,,,,612.5665256819993,None,612.5665256819993,None,,,,,,,,,sub-06,12/03/2002,2: Female,08/09/2023,002,1: right,2023_Sep_08_1750,[FINAL]_fmri_multiplication,2021.2.3,59.96967405503158
block6.xlsx,,,,,,,,,,,,,,0,1,1,1,,,,,6,0,6,0,,,,,,,,,,,,,,,,,,,,,,,,,,,,,,,,,,,,,,613.5689532220003,None,613.5689532220003,None,,,,,,,,,sub-06,12/03/2002,2: Female,08/09/2023,002,1: right,2023_Sep_08_1750,[FINAL]_fmri_multiplication,2021.2.3,59.96967405503158
block6.xlsx,,,,,,,,,,,,,,0,1,1,1,,,,,7,0,7,0,,,,,,,,,,,,,,,,,,,,,,,,,,,,,,,,,,,,,,614.5658500650006,None,614.5658500650006,None,,,,,,,,,sub-06,12/03/2002,2: Female,08/09/2023,002,1: right,2023_Sep_08_1750,[FINAL]_fmri_multiplication,2021.2.3,59.96967405503158
block6.xlsx,,,,,,,,,,,,,,0,1,1,1,,,,,8,0,8,0,,,,,,,,,,,,,,,,,,,,,,,,,,,,,,,,,,,,,,615.5664956050005,None,615.5664956050005,None,,,,,,,,,sub-06,12/03/2002,2: Female,08/09/2023,002,1: right,2023_Sep_08_1750,[FINAL]_fmri_multiplication,2021.2.3,59.96967405503158
block6.xlsx,,,,,,,,,,,,,,0,1,1,1,,,,,9,0,9,0,,,,,,,,,,,,,,,,,,,,,,,,,,,,,,,,,,,,,,616.5650674989993,None,616.5650674989993,None,,,,,,,,,sub-06,12/03/2002,2: Female,08/09/2023,002,1: right,2023_Sep_08_1750,[FINAL]_fmri_multiplication,2021.2.3,59.96967405503158
block6.xlsx,,,,,,,,,,,,,,0,1,1,1,,,,,10,0,10,0,,,,,,,,,,,,,,,,,,,,,,,,,,,,,,,,,,,,,,617.5650757669991,None,617.5650757669991,None,,,,,,,,,sub-06,12/03/2002,2: Female,08/09/2023,002,1: right,2023_Sep_08_1750,[FINAL]_fmri_multiplication,2021.2.3,59.96967405503158
block6.xlsx,,,,,,,,,,,,,,0,1,1,1,,,,,11,0,11,0,,,,,,,,,,,,,,,,,,,,,,,,,,,,,,,,,,,,,,618.5659322489992,None,618.5659322489992,None,,,,,,,,,sub-06,12/03/2002,2: Female,08/09/2023,002,1: right,2023_Sep_08_1750,[FINAL]_fmri_multiplication,2021.2.3,59.96967405503158
block6.xlsx,,,,,,,,,,,,,,0,1,1,1,,,,,12,0,12,0,,,,,,,,,,,,,,,,,,,,,,,,,,,,,,,,,,,,,,619.5662040629995,None,619.5662040629995,None,,,,,,,,,sub-06,12/03/2002,2: Female,08/09/2023,002,1: right,2023_Sep_08_1750,[FINAL]_fmri_multiplication,2021.2.3,59.96967405503158
block6.xlsx,,,,,,,,,,,,,,0,1,1,1,,,,,13,0,13,0,,,,,,,,,,,,,,,,,,,,,,,,,,,,,,,,,,,,,,620.5663327309994,None,620.5663327309994,None,,,,,,,,,sub-06,12/03/2002,2: Female,08/09/2023,002,1: right,2023_Sep_08_1750,[FINAL]_fmri_multiplication,2021.2.3,59.96967405503158
block6.xlsx,,,,,,,,,,,,,,0,1,1,1,,,,,14,0,14,0,,,,,,,,,,,,,,,,,,,,,,,,,,,,,,,,,,,,,,621.5662254189992,None,621.5662254189992,None,,,,,,,,,sub-06,12/03/2002,2: Female,08/09/2023,002,1: right,2023_Sep_08_1750,[FINAL]_fmri_multiplication,2021.2.3,59.96967405503158
block6.xlsx,,,,,,,,,,,,,,0,1,1,1,,,,,15,0,15,0,,,,,,,,,,,,,,,,,,,,,,,,,,,,,,,,,,,,,,622.5662729310006,None,622.5662729310006,None,,,,,,,,,sub-06,12/03/2002,2: Female,08/09/2023,002,1: right,2023_Sep_08_1750,[FINAL]_fmri_multiplication,2021.2.3,59.96967405503158
block6.xlsx,,,,,,,,,,,,,,0,1,1,1,,,,,16,0,16,0,,,,,,,,,,,,,,,,,,,,,,,,,,,,,,,,,,,,,,623.5658279859999,None,623.5658279859999,None,,,,,,,,,sub-06,12/03/2002,2: Female,08/09/2023,002,1: right,2023_Sep_08_1750,[FINAL]_fmri_multiplication,2021.2.3,59.96967405503158
block6.xlsx,,,,,,,,,,,,,,0,1,1,1,,,,,17,0,17,0,,,,,,,,,,,,,,,,,,,,,,,,,,,,,,,,,,,,,,624.5659837259991,None,624.5659837259991,None,,,,,,,,,sub-06,12/03/2002,2: Female,08/09/2023,002,1: right,2023_Sep_08_1750,[FINAL]_fmri_multiplication,2021.2.3,59.96967405503158
block6.xlsx,,,,,,,,,,,,,,0,1,1,1,,,,,18,0,18,0,,,,,,,,,,,,,,,,,,,,,,,,,,,,,,,,,,,,,,625.5669904080005,None,625.5669904080005,None,,,,,,,,,sub-06,12/03/2002,2: Female,08/09/2023,002,1: right,2023_Sep_08_1750,[FINAL]_fmri_multiplication,2021.2.3,59.96967405503158
block6.xlsx,,,,,,,,,,,,,,0,1,1,1,,,,,19,0,19,0,,,,,,,,,,,,,,,,,,,,,,,,,,,,,,,,,,,,,,626.5659836529994,None,626.5659836529994,None,,,,,,,,,sub-06,12/03/2002,2: Female,08/09/2023,002,1: right,2023_Sep_08_1750,[FINAL]_fmri_multiplication,2021.2.3,59.96967405503158
block6.xlsx,,,,,,,,,,,,,,0,1,1,1,,,,,20,0,20,0,,,,,,,,,,,,,,,,,,,,,,,,,,,,,,,,,,,,,,627.5658885299999,None,627.5658885299999,None,,,,,,,,,sub-06,12/03/2002,2: Female,08/09/2023,002,1: right,2023_Sep_08_1750,[FINAL]_fmri_multiplication,2021.2.3,59.96967405503158
block6.xlsx,,,,,,,,,,,,,,0,1,1,1,,,,,21,0,21,0,,,,,,,,,,,,,,,,,,,,,,,,,,,,,,,,,,,,,,628.566069,None,628.566069,None,,,,,,,,,sub-06,12/03/2002,2: Female,08/09/2023,002,1: right,2023_Sep_08_1750,[FINAL]_fmri_multiplication,2021.2.3,59.96967405503158
block6.xlsx,,,,,,,,,,,,,,0,1,1,1,,,,,22,0,22,0,,,,,,,,,,,,,,,,,,,,,,,,,,,,,,,,,,,,,,629.5649291699992,None,629.5649291699992,None,,,,,,,,,sub-06,12/03/2002,2: Female,08/09/2023,002,1: right,2023_Sep_08_1750,[FINAL]_fmri_multiplication,2021.2.3,59.96967405503158
block6.xlsx,,,,,,,,,,,,,,0,1,1,1,,,,,23,0,23,0,,,,,,,,,,,,,,,,,,,,,,,,,,,,,,,,,,,,,,630.5664506,None,630.5664506,None,,,,,,,,,sub-06,12/03/2002,2: Female,08/09/2023,002,1: right,2023_Sep_08_1750,[FINAL]_fmri_multiplication,2021.2.3,59.96967405503158
block6.xlsx,,,,,,,,,,,,,,0,1,1,1,,,,,24,0,24,0,,,,,,,,,,,,,,,,,,,,,,,,,,,,,,,,,,,,,,631.566032,None,631.566032,None,,,,,,,,,sub-06,12/03/2002,2: Female,08/09/2023,002,1: right,2023_Sep_08_1750,[FINAL]_fmri_multiplication,2021.2.3,59.96967405503158
block6.xlsx,,,,,,,,,,,,,,0,1,1,1,,,,,25,0,25,0,,,,,,,,,,,,,,,,,,,,,,,,,,,,,,,,,,,,,,632.5668838519996,None,632.5668838519996,None,,,,,,,,,sub-06,12/03/2002,2: Female,08/09/2023,002,1: right,2023_Sep_08_1750,[FINAL]_fmri_multiplication,2021.2.3,59.96967405503158
block6.xlsx,,,,,,,,,,,,,,0,1,1,1,,,,,26,0,26,0,,,,,,,,,,,,,,,,,,,,,,,,,,,,,,,,,,,,,,633.5670572670006,None,633.5670572670006,None,,,,,,,,,sub-06,12/03/2002,2: Female,08/09/2023,002,1: right,2023_Sep_08_1750,[FINAL]_fmri_multiplication,2021.2.3,59.96967405503158
block6.xlsx,,,,,,,,,,,,,,0,1,1,1,,,,,27,0,27,0,,,,,,,,,,,,,,,,,,,,,,,,,,,,,,,,,,,,,,634.5658199850004,None,634.5658199850004,None,,,,,,,,,sub-06,12/03/2002,2: Female,08/09/2023,002,1: right,2023_Sep_08_1750,[FINAL]_fmri_multiplication,2021.2.3,59.96967405503158
block6.xlsx,,,,,,,,,,,,,,0,1,1,1,,,,,28,0,28,0,,,,,,,,,,,,,,,,,,,,,,,,,,,,,,,,,,,,,,635.5643356,None,635.5643356,None,,,,,,,,,sub-06,12/03/2002,2: Female,08/09/2023,002,1: right,2023_Sep_08_1750,[FINAL]_fmri_multiplication,2021.2.3,59.96967405503158
block6.xlsx,,,,,,,,,,,,,,0,1,1,1,,,,,29,0,29,0,,,,,,,,,,,,,,,,,,,,,,,,,,,,,,,,,,,,,,636.5660539700002,None,636.5660539700002,None,,,,,,,,,sub-06,12/03/2002,2: Female,08/09/2023,002,1: right,2023_Sep_08_1750,[FINAL]_fmri_multiplication,2021.2.3,59.96967405503158
block6.xlsx,,,,,,,,,,,,,,0,1,1,1,,,,,,,,,,,,,,,,,,,,,,,,,,,,,,,,,,,,,,,,,,,,,,,,,,,,,,,,,,sub-06,12/03/2002,2: Female,08/09/2023,002,1: right,2023_Sep_08_1750,[FINAL]_fmri_multiplication,2021.2.3,59.96967405503158
block7.xlsx,10,7.5,4,2 x 7,14,1,7 x 2 = 14,small-sized_low-interference,small-sized,low-interference,4,CorrectRESP,a,0,2,2,2,0,0,0,0,,,,,,,,,,,,,637.5675820249999,None,647.5874689440006,None,648.0661066310004,None,650.0662816,None,650.8160568259991,None,651.0657848829997,None,651.0657848829997,None,a,0,0.4439897190004558,651.0657848829997,None,651.5322052529991,None,651.5322052529991,None,d,0.2895887569993647,651.5322052529991,None,651.8494073689999,None,,,,,,,,,,,,,sub-06,12/03/2002,2: Female,08/09/2023,002,1: right,2023_Sep_08_1750,[FINAL]_fmri_multiplication,2021.2.3,59.96967405503158
block7.xlsx,21.5,7.5,14.2,3 x 6,15,7,6 x 3 = 15,small-sized_high-interference,small-sized,high-interference,8,IncorrectRESP,d,0,2,2,2,0,1,1,1,,,,,,,,,,,,,,,655.8487395110005,None,656.3495301999992,None,658.3495786629992,None,659.0994796,None,659.3493842129992,None,659.3493842129992,None,d,0,0.5123034039988852,659.3493842129992,None,659.8822558800002,None,659.8822558800002,None,d,0.10753255599956901,659.8822558800002,None,660.0158554509999,None,,,,,,,,,,,,,sub-06,12/03/2002,2: Female,08/09/2023,002,1: right,2023_Sep_08_1750,[FINAL]_fmri_multiplication,2021.2.3,59.96967405503158
block7.xlsx,43.2,7.5,5.1,2 x 7,12,1,7 x 2 = 12,small-sized_low-interference,small-sized,low-interference,4,IncorrectRESP,d,0,2,2,2,0,2,2,2,,,,,,,,,,,,,,,674.2163631,None,674.7163292,None,676.7166140240006,None,677.4666270679991,None,677.7307937410005,None,677.7307937410005,None,d,0,0.4749333330000809,677.7307937410005,None,678.2332405460002,None,678.2332405460002,None,d,0.10042481100026635,678.2332405460002,None,678.3664920259998,None,,,,,,,,,,,,,sub-06,12/03/2002,2: Female,08/09/2023,002,1: right,2023_Sep_08_1750,[FINAL]_fmri_multiplication,2021.2.3,59.96967405503158
block7.xlsx,55.8,7.5,3.4,5 x 9,40,15,9 x 5 = 40,large-sized_low-interference,large-sized,low-interference,6,IncorrectRESP,d,0,2,2,2,0,3,3,3,,,,,,,,,,,,,,,683.4663194210007,None,683.9661032,None,685.9661333919994,None,686.7162256129996,None,686.9658925099993,None,686.9658925099993,None,d,0,0.4797909429998981,686.9658925099993,None,687.4655745460004,None,687.4655745460004,None,d,0.1402163479997398,687.4655745460004,None,687.6325946929992,None,,,,,,,,,,,,,sub-06,12/03/2002,2: Female,08/09/2023,002,1: right,2023_Sep_08_1750,[FINAL]_fmri_multiplication,2021.2.3,59.96967405503158
block7.xlsx,66.7,7.5,2.9,5 x 5,30,3,5 x 5 = 30,small-sized_low-interference,small-sized,low-interference,3,IncorrectRESP,d,0,2,2,2,0,4,4,4,,,,,,,,,,,,,,,691.0327854860006,None,691.5323567619998,None,693.5328273,None,694.2828266199995,None,694.5326766020007,None,694.5326766020007,None,d,0,0.7930140480002592,694.5326766020007,None,695.3489405660002,None,695.3489405660002,None,d,0.16875060200072767,695.3489405660002,None,695.5492512019991,None,,,,,,,,,,,,,sub-06,12/03/2002,2: Female,08/09/2023,002,1: right,2023_Sep_08_1750,[FINAL]_fmri_multiplication,2021.2.3,59.96967405503158
block7.xlsx,77.1,7.5,13.9,5 x 7,40,17,7 x 5 = 40,large-sized_low-interference,large-sized,low-interference,7,IncorrectRESP,d,0,2,2,2,0,5,5,5,,,,,,,,,,,,,,,698.4489393189997,None,698.9493102960005,None,700.9493418639995,None,701.6994466790002,None,701.9504308390005,None,701.9504308390005,None,d,0,0.45528161999936856,701.9504308390005,None,702.4322297910003,None,702.4322297910003,None,d,0.12553925800057186,702.4322297910003,None,702.5825276470005,None,,,,,,,,,,,,,sub-06,12/03/2002,2: Female,08/09/2023,002,1: right,2023_Sep_08_1750,[FINAL]_fmri_multiplication,2021.2.3,59.96967405503158
block7.xlsx,98.5,7.5,2.6,2 x 8,16,5,8 x 2 = 16,small-sized_low-interference,small-sized,low-interference,7,CorrectRESP,a,0,2,2,2,0,6,6,6,,,,,,,,,,,,,,,716.4831368979994,None,716.9824808590001,None,718.9829622109992,None,719.7329141390001,None,719.9824974330004,None,719.9824974330004,None,a,0,0.47125100800076325,719.9824974330004,None,720.4828171089994,None,720.4828171089994,None,d,0.20285808899825497,720.4828171089994,None,720.7161602609995,None,,,,,,,,,,,,,sub-06,12/03/2002,2: Female,08/09/2023,002,1: right,2023_Sep_08_1750,[FINAL]_fmri_multiplication,2021.2.3,59.96967405503158
block7.xlsx,108.6,7.5,11.6,3 x 6,18,7,6 x 3 = 18,small-sized_high-interference,small-sized,high-interference,8,CorrectRESP,a,0,2,2,2,0,7,7,7,,,,,,,,,,,,,,,723.3161002439992,None,723.815795,None,725.8159436530004,None,726.5661173030003,None,726.8159901929994,None,726.8159901929994,None,a,0,0.4457517499995447,726.8159901929994,None,727.2820545979994,None,727.2820545979994,None,d,0.1157914659997914,727.2820545979994,None,727.4160884190005,None,,,,,,,,,,,,,sub-06,12/03/2002,2: Female,08/09/2023,002,1: right,2023_Sep_08_1750,[FINAL]_fmri_multiplication,2021.2.3,59.96967405503158
block7.xlsx,127.7,7.5,5,5 x 5,25,3,5 x 5 = 25,small-sized_low-interference,small-sized,low-interference,3,CorrectRESP,a,0,2,2,2,0,8,8,8,,,,,,,,,,,,,,,739.0157882090007,None,739.5159472,None,741.5160577349998,None,742.2661852019992,None,742.5164594029993,None,742.5164594029993,None,a,0,0.3692150930000935,742.5164594029993,None,742.9161385150001,None,742.9161385150001,None,d,0.12956764999944426,742.9161385150001,None,743.0658824269995,None,,,,,,,,,,,,,sub-06,12/03/2002,2: Female,08/09/2023,002,1: right,2023_Sep_08_1750,[FINAL]_fmri_multiplication,2021.2.3,59.96967405503158
block7.xlsx,140.2,7.5,2.8,6 x 6,36,13,6 x 6 = 36,large-sized_low-interference,large-sized,low-interference,4,CorrectRESP,a,0,2,2,2,0,9,9,9,,,,,,,,,,,,,,,748.0794335949995,None,748.5829806,None,750.5829124819993,None,751.3331703170006,None,751.5826989830002,None,751.5826989830002,None,a,0,0.4311296779997065,751.5826989830002,None,752.0326548539997,None,752.0326548539997,None,d,0.7810758519990486,752.0326548539997,None,752.8326349069994,None,,,,,,,,,,,,,sub-06,12/03/2002,2: Female,08/09/2023,002,1: right,2023_Sep_08_1750,[FINAL]_fmri_multiplication,2021.2.3,59.96967405503158
block7.xlsx,150.5,7.5,2,3 x 7,21,11,7 x 3 = 21,small-sized_high-interference,small-sized,high-interference,13,CorrectRESP,a,0,2,2,2,0,10,10,10,,,,,,,,,,,,,,,755.6330391169995,None,756.1328934199992,None,758.1328736739997,None,758.8828807869995,None,759.1328456020001,None,759.1328456020001,None,a,0,0.44093006899856846,759.1328456020001,None,759.5987478829993,None,759.5987478829993,None,d,0.15089710999927775,759.5987478829993,None,759.7656107359999,None,,,,,,,,,,,,,sub-06,12/03/2002,2: Female,08/09/2023,002,1: right,2023_Sep_08_1750,[FINAL]_fmri_multiplication,2021.2.3,59.96967405503158
block7.xlsx,160,7.5,2.7,6 x 7,48,23,7 x 6 = 48,large-sized_high-interference,large-sized,high-interference,22,IncorrectRESP,d,0,2,2,2,0,11,11,11,,,,,,,,,,,,,,,761.7660195080007,None,762.2658452960004,None,764.2661082550003,None,765.0161547749994,None,765.2644378080004,None,765.2644378080004,None,d,0,0.4851938749998226,765.2644378080004,None,765.7822940900005,None,765.7822940900005,None,d,0.095376971,765.7822940900005,None,765.8989792,None,,,,,,,,,,,,,sub-06,12/03/2002,2: Female,08/09/2023,002,1: right,2023_Sep_08_1750,[FINAL]_fmri_multiplication,2021.2.3,59.96967405503158
block7.xlsx,170.2,7.5,7,5 x 7,35,17,7 x 5 = 35,large-sized_low-interference,large-sized,low-interference,7,CorrectRESP,a,0,2,2,2,0,12,12,12,,,,,,,,,,,,,,,768.5992183229991,None,769.0992174029998,None,771.0994381469991,None,771.8494084390004,None,772.099457,None,772.099457,None,a,0,0.4421849589998601,772.099457,None,772.5656049890003,None,772.5656049890003,None,d,0.144108923,772.5656049890003,None,772.7326923119999,None,,,,,,,,,,,,,sub-06,12/03/2002,2: Female,08/09/2023,002,1: right,2023_Sep_08_1750,[FINAL]_fmri_multiplication,2021.2.3,59.96967405503158
block7.xlsx,184.7,7.5,3,3 x 9,27,19,9 x 3 = 27,large-sized_high-interference,large-sized,high-interference,9,CorrectRESP,a,0,2,2,2,0,13,13,13,,,,,,,,,,,,,,,779.7329744460003,None,780.2330541440006,None,782.2293178950003,None,782.9717441480007,None,783.2251553179995,None,783.2251553179995,None,a,0,0.4365222950000316,783.2251553179995,None,783.6827095579993,None,783.6827095579993,None,d,0.15506484499928774,783.6827095579993,None,783.8663780139996,None,,,,,,,,,,,,,sub-06,12/03/2002,2: Female,08/09/2023,002,1: right,2023_Sep_08_1750,[FINAL]_fmri_multiplication,2021.2.3,59.96967405503158
block7.xlsx,195.2,7.5,7.1,4 x 3,15,9,3 x 4 = 15,small-sized_high-interference,small-sized,high-interference,10,IncorrectRESP,d,0,2,2,2,0,14,14,14,,,,,,,,,,,,,,,786.8664696809992,None,787.3659968060001,None,789.3664609949992,None,790.1161827420001,None,790.3655152,None,790.3655152,None,d,0,0.5042671100000007,790.3655152,None,790.8989751289992,None,790.8989751289992,None,d,0.098768546,790.8989751289992,None,791.0152573029991,None,,,,,,,,,,,,,sub-06,12/03/2002,2: Female,08/09/2023,002,1: right,2023_Sep_08_1750,[FINAL]_fmri_multiplication,2021.2.3,59.96967405503158
block7.xlsx,209.8,7.5,3.9,2 x 8,18,5,8 x 2 = 18,small-sized_low-interference,small-sized,low-interference,7,IncorrectRESP,d,0,2,2,2,0,15,15,15,,,,,,,,,,,,,,,798.1156927569991,None,798.6159356770004,None,800.6159281250002,None,801.3659503319996,None,801.6155305,None,801.6155305,None,d,0,0.478248869,801.6155305,None,802.1156439639999,None,802.1156439639999,None,d,0.14603030199941713,802.1156439639999,None,802.2822808159999,None,,,,,,,,,,,,,sub-06,12/03/2002,2: Female,08/09/2023,002,1: right,2023_Sep_08_1750,[FINAL]_fmri_multiplication,2021.2.3,59.96967405503158
block7.xlsx,221.2,7.5,13.2,8 x 5,40,21,5 x 8 = 40,large-sized_high-interference,large-sized,high-interference,9,CorrectRESP,a,0,2,2,2,0,16,16,16,,,,,,,,,,,,,,,806.1823105540007,None,806.6829430790003,None,808.6826883409994,None,809.4327299329998,None,809.6825984789994,None,809.6825984789994,None,a,0,0.4350889500001358,809.6825984789994,None,810.1489606609994,None,810.1489606609994,None,d,0.12070232099904388,810.1489606609994,None,810.2990552709998,None,,,,,,,,,,,,,sub-06,12/03/2002,2: Female,08/09/2023,002,1: right,2023_Sep_08_1750,[FINAL]_fmri_multiplication,2021.2.3,59.96967405503158
block7.xlsx,241.9,7.5,8.7,3 x 7,24,11,7 x 3 = 24,small-sized_high-interference,small-sized,high-interference,13,IncorrectRESP,d,0,2,2,2,0,17,17,17,,,,,,,,,,,,,,,823.4961622289993,None,823.9982284580001,None,825.9990815260007,None,826.7496282600005,None,826.9989027,None,826.9989027,None,d,0,0.46280347100037034,826.9989027,None,827.4822927799996,None,827.4822927799996,None,d,0.12346295200040913,827.4822927799996,None,827.6318169810002,None,,,,,,,,,,,,,sub-06,12/03/2002,2: Female,08/09/2023,002,1: right,2023_Sep_08_1750,[FINAL]_fmri_multiplication,2021.2.3,59.96967405503158
block7.xlsx,258.1,7.5,8.1,6 x 6,30,13,6 x 6 = 30,large-sized_low-interference,large-sized,low-interference,4,IncorrectRESP,d,0,2,2,2,0,18,18,18,,,,,,,,,,,,,,,836.3327415889999,None,836.8322843589995,None,838.8327237329995,None,839.5825123300001,None,839.8328037579995,None,839.8328037579995,None,d,0,0.42886739899950044,839.8328037579995,None,840.2822562429992,None,840.2822562429992,None,d,0.11552577700058464,840.2822562429992,None,840.4156552929999,None,,,,,,,,,,,,,sub-06,12/03/2002,2: Female,08/09/2023,002,1: right,2023_Sep_08_1750,[FINAL]_fmri_multiplication,2021.2.3,59.96967405503158
block7.xlsx,273.7,7.5,8.2,8 x 5,45,21,5 x 8 = 45,large-sized_high-interference,large-sized,high-interference,9,IncorrectRESP,d,0,2,2,2,0,19,19,19,,,,,,,,,,,,,,,848.5158772779996,None,849.0166045780006,None,851.0164379130001,None,851.7651096360005,None,852.0168939439991,None,852.0168939439991,None,d,0,0.4208215710004879,852.0168939439991,None,852.4664698619999,None,852.4664698619999,None,d,0.099404737,852.4664698619999,None,852.5831492220004,None,,,,,,,,,,,,,sub-06,12/03/2002,2: Female,08/09/2023,002,1: right,2023_Sep_08_1750,[FINAL]_fmri_multiplication,2021.2.3,59.96967405503158
block7.xlsx,289.4,7.5,5.5,4 x 3,12,9,3 x 4 = 12,small-sized_high-interference,small-sized,high-interference,10,CorrectRESP,a,0,2,2,2,0,20,20,20,,,,,,,,,,,,,,,860.7828816109995,None,861.2823891480002,None,863.2828129680001,None,864.0327971160004,None,864.2822673110004,None,864.2822673110004,None,a,0,0.5233836210009031,864.2822673110004,None,864.8325902519991,None,864.8325902519991,None,d,0.12515215300118143,864.8325902519991,None,864.9827043099995,None,,,,,,,,,,,,,sub-06,12/03/2002,2: Female,08/09/2023,002,1: right,2023_Sep_08_1750,[FINAL]_fmri_multiplication,2021.2.3,59.96967405503158
block7.xlsx,302.4,7.5,4.8,3 x 9,24,19,9 x 3 = 24,large-sized_high-interference,large-sized,high-interference,9,IncorrectRESP,d,0,2,2,2,0,21,21,21,,,,,,,,,,,,,,,870.4827742859998,None,870.9826074329994,None,872.9828266450004,None,873.7325811760002,None,873.9811054370002,None,873.9811054370002,None,d,0,0.44062975800079585,873.9811054370002,None,874.4492076730003,None,874.4492076730003,None,d,0.12456477500018082,874.4492076730003,None,874.5990675119992,None,,,,,,,,,,,,,sub-06,12/03/2002,2: Female,08/09/2023,002,1: right,2023_Sep_08_1750,[FINAL]_fmri_multiplication,2021.2.3,59.96967405503158
block7.xlsx,314.7,7.5,2.5,5 x 9,45,15,9 x 5 = 45,large-sized_low-interference,large-sized,low-interference,6,CorrectRESP,a,0,2,2,2,0,22,22,22,,,,,,,,,,,,,,,879.3993691350006,None,879.9004653819993,None,881.8993356299998,None,882.6494960170003,None,882.8996410790005,None,882.8996410790005,None,a,0,0.4180475049997767,882.8996410790005,None,883.3486378840007,None,883.3486378840007,None,d,0.12110098999983165,883.3486378840007,None,883.4995600340008,None,,,,,,,,,,,,,sub-06,12/03/2002,2: Female,08/09/2023,002,1: right,2023_Sep_08_1750,[FINAL]_fmri_multiplication,2021.2.3,59.96967405503158
block7.xlsx,324.7,7.5,2.8,6 x 7,42,23,7 x 6 = 42,large-sized_high-interference,large-sized,high-interference,22,CorrectRESP,a,0,2,2,2,0,23,23,23,,,,,,,,,,,,,,,885.9990233560002,None,886.5133487860003,None,888.4960483060004,None,889.2375668,None,889.4963252979996,None,889.4963252979996,None,a,0,0.4213526040002762,889.4963252979996,None,889.9508257540001,None,889.9508257540001,None,d,0.11883343900080945,889.9508257540001,None,890.0997948139993,None,,,,,,,,,,,,,sub-06,12/03/2002,2: Female,08/09/2023,002,1: right,2023_Sep_08_1750,[FINAL]_fmri_multiplication,2021.2.3,59.96967405503158
block7.xlsx,,,,,,,,,,,,,,0,2,2,2,,,,,0,0,0,0,,,,,,,,,,,,,,,,,,,,,,,,,,,,,,,,,,,,,,892.9000835129991,None,892.9000835129991,None,,,,,,,,,sub-06,12/03/2002,2: Female,08/09/2023,002,1: right,2023_Sep_08_1750,[FINAL]_fmri_multiplication,2021.2.3,59.96967405503158
block7.xlsx,,,,,,,,,,,,,,0,2,2,2,,,,,1,0,1,0,,,,,,,,,,,,,,,,,,,,,,,,,,,,,,,,,,,,,,893.8998355029998,893.8998355029998,893.8998355029998,893.8998355029998,,,,,,,,,sub-06,12/03/2002,2: Female,08/09/2023,002,1: right,2023_Sep_08_1750,[FINAL]_fmri_multiplication,2021.2.3,59.96967405503158
block7.xlsx,,,,,,,,,,,,,,0,2,2,2,,,,,2,0,2,0,,,,,,,,,,,,,,,,,,,,,,,,,,,,,,,,,,,,,,894.9003666,894.9003666,894.9003666,894.9003666,,,,,,,,,sub-06,12/03/2002,2: Female,08/09/2023,002,1: right,2023_Sep_08_1750,[FINAL]_fmri_multiplication,2021.2.3,59.96967405503158
block7.xlsx,,,,,,,,,,,,,,0,2,2,2,,,,,3,0,3,0,,,,,,,,,,,,,,,,,,,,,,,,,,,,,,,,,,,,,,895.8993921269994,895.8993921269994,895.8993921269994,895.8993921269994,,,,,,,,,sub-06,12/03/2002,2: Female,08/09/2023,002,1: right,2023_Sep_08_1750,[FINAL]_fmri_multiplication,2021.2.3,59.96967405503158
block7.xlsx,,,,,,,,,,,,,,0,2,2,2,,,,,4,0,4,0,,,,,,,,,,,,,,,,,,,,,,,,,,,,,,,,,,,,,,896.8993760630001,896.8993760630001,896.8993760630001,896.8993760630001,,,,,,,,,sub-06,12/03/2002,2: Female,08/09/2023,002,1: right,2023_Sep_08_1750,[FINAL]_fmri_multiplication,2021.2.3,59.96967405503158
block7.xlsx,,,,,,,,,,,,,,0,2,2,2,,,,,5,0,5,0,,,,,,,,,,,,,,,,,,,,,,,,,,,,,,,,,,,,,,897.8991398880007,897.8991398880007,897.8991398880007,897.8991398880007,,,,,,,,,sub-06,12/03/2002,2: Female,08/09/2023,002,1: right,2023_Sep_08_1750,[FINAL]_fmri_multiplication,2021.2.3,59.96967405503158
block7.xlsx,,,,,,,,,,,,,,0,2,2,2,,,,,6,0,6,0,,,,,,,,,,,,,,,,,,,,,,,,,,,,,,,,,,,,,,898.9007789040006,898.9007789040006,898.9007789040006,898.9007789040006,,,,,,,,,sub-06,12/03/2002,2: Female,08/09/2023,002,1: right,2023_Sep_08_1750,[FINAL]_fmri_multiplication,2021.2.3,59.96967405503158
block7.xlsx,,,,,,,,,,,,,,0,2,2,2,,,,,7,0,7,0,,,,,,,,,,,,,,,,,,,,,,,,,,,,,,,,,,,,,,899.9160605479992,None,899.9160605479992,None,,,,,,,,,sub-06,12/03/2002,2: Female,08/09/2023,002,1: right,2023_Sep_08_1750,[FINAL]_fmri_multiplication,2021.2.3,59.96967405503158
block7.xlsx,,,,,,,,,,,,,,0,2,2,2,,,,,8,0,8,0,,,,,,,,,,,,,,,,,,,,,,,,,,,,,,,,,,,,,,900.9163068550006,None,900.9163068550006,None,,,,,,,,,sub-06,12/03/2002,2: Female,08/09/2023,002,1: right,2023_Sep_08_1750,[FINAL]_fmri_multiplication,2021.2.3,59.96967405503158
block7.xlsx,,,,,,,,,,,,,,0,2,2,2,,,,,9,0,9,0,,,,,,,,,,,,,,,,,,,,,,,,,,,,,,,,,,,,,,901.9165554800002,None,901.9165554800002,None,,,,,,,,,sub-06,12/03/2002,2: Female,08/09/2023,002,1: right,2023_Sep_08_1750,[FINAL]_fmri_multiplication,2021.2.3,59.96967405503158
block7.xlsx,,,,,,,,,,,,,,0,2,2,2,,,,,10,0,10,0,,,,,,,,,,,,,,,,,,,,,,,,,,,,,,,,,,,,,,902.9168344,None,902.9168344,None,,,,,,,,,sub-06,12/03/2002,2: Female,08/09/2023,002,1: right,2023_Sep_08_1750,[FINAL]_fmri_multiplication,2021.2.3,59.96967405503158
block7.xlsx,,,,,,,,,,,,,,0,2,2,2,,,,,11,0,11,0,,,,,,,,,,,,,,,,,,,,,,,,,,,,,,,,,,,,,,903.9157955949995,None,903.9157955949995,None,,,,,,,,,sub-06,12/03/2002,2: Female,08/09/2023,002,1: right,2023_Sep_08_1750,[FINAL]_fmri_multiplication,2021.2.3,59.96967405503158
block7.xlsx,,,,,,,,,,,,,,0,2,2,2,,,,,12,0,12,0,,,,,,,,,,,,,,,,,,,,,,,,,,,,,,,,,,,,,,904.9162360619994,None,904.9162360619994,None,,,,,,,,,sub-06,12/03/2002,2: Female,08/09/2023,002,1: right,2023_Sep_08_1750,[FINAL]_fmri_multiplication,2021.2.3,59.96967405503158
block7.xlsx,,,,,,,,,,,,,,0,2,2,2,,,,,13,0,13,0,,,,,,,,,,,,,,,,,,,,,,,,,,,,,,,,,,,,,,905.9171132,None,905.9171132,None,,,,,,,,,sub-06,12/03/2002,2: Female,08/09/2023,002,1: right,2023_Sep_08_1750,[FINAL]_fmri_multiplication,2021.2.3,59.96967405503158
block7.xlsx,,,,,,,,,,,,,,0,2,2,2,,,,,14,0,14,0,,,,,,,,,,,,,,,,,,,,,,,,,,,,,,,,,,,,,,906.9161223400006,None,906.9161223400006,None,,,,,,,,,sub-06,12/03/2002,2: Female,08/09/2023,002,1: right,2023_Sep_08_1750,[FINAL]_fmri_multiplication,2021.2.3,59.96967405503158
block7.xlsx,,,,,,,,,,,,,,0,2,2,2,,,,,15,0,15,0,,,,,,,,,,,,,,,,,,,,,,,,,,,,,,,,,,,,,,907.9162742219996,None,907.9162742219996,None,,,,,,,,,sub-06,12/03/2002,2: Female,08/09/2023,002,1: right,2023_Sep_08_1750,[FINAL]_fmri_multiplication,2021.2.3,59.96967405503158
block7.xlsx,,,,,,,,,,,,,,0,2,2,2,,,,,16,0,16,0,,,,,,,,,,,,,,,,,,,,,,,,,,,,,,,,,,,,,,908.9166287360003,None,908.9166287360003,None,,,,,,,,,sub-06,12/03/2002,2: Female,08/09/2023,002,1: right,2023_Sep_08_1750,[FINAL]_fmri_multiplication,2021.2.3,59.96967405503158
block7.xlsx,,,,,,,,,,,,,,0,2,2,2,,,,,17,0,17,0,,,,,,,,,,,,,,,,,,,,,,,,,,,,,,,,,,,,,,909.9165132,None,909.9165132,None,,,,,,,,,sub-06,12/03/2002,2: Female,08/09/2023,002,1: right,2023_Sep_08_1750,[FINAL]_fmri_multiplication,2021.2.3,59.96967405503158
block7.xlsx,,,,,,,,,,,,,,0,2,2,2,,,,,18,0,18,0,,,,,,,,,,,,,,,,,,,,,,,,,,,,,,,,,,,,,,910.9161994940005,None,910.9161994940005,None,,,,,,,,,sub-06,12/03/2002,2: Female,08/09/2023,002,1: right,2023_Sep_08_1750,[FINAL]_fmri_multiplication,2021.2.3,59.96967405503158
block7.xlsx,,,,,,,,,,,,,,0,2,2,2,,,,,19,0,19,0,,,,,,,,,,,,,,,,,,,,,,,,,,,,,,,,,,,,,,911.9164782089993,None,911.9164782089993,None,,,,,,,,,sub-06,12/03/2002,2: Female,08/09/2023,002,1: right,2023_Sep_08_1750,[FINAL]_fmri_multiplication,2021.2.3,59.96967405503158
block7.xlsx,,,,,,,,,,,,,,0,2,2,2,,,,,20,0,20,0,,,,,,,,,,,,,,,,,,,,,,,,,,,,,,,,,,,,,,912.9168575240001,None,912.9168575240001,None,,,,,,,,,sub-06,12/03/2002,2: Female,08/09/2023,002,1: right,2023_Sep_08_1750,[FINAL]_fmri_multiplication,2021.2.3,59.96967405503158
block7.xlsx,,,,,,,,,,,,,,0,2,2,2,,,,,21,0,21,0,,,,,,,,,,,,,,,,,,,,,,,,,,,,,,,,,,,,,,913.9159694690006,None,913.9159694690006,None,,,,,,,,,sub-06,12/03/2002,2: Female,08/09/2023,002,1: right,2023_Sep_08_1750,[FINAL]_fmri_multiplication,2021.2.3,59.96967405503158
block7.xlsx,,,,,,,,,,,,,,0,2,2,2,,,,,22,0,22,0,,,,,,,,,,,,,,,,,,,,,,,,,,,,,,,,,,,,,,914.9167072710006,None,914.9167072710006,None,,,,,,,,,sub-06,12/03/2002,2: Female,08/09/2023,002,1: right,2023_Sep_08_1750,[FINAL]_fmri_multiplication,2021.2.3,59.96967405503158
block7.xlsx,,,,,,,,,,,,,,0,2,2,2,,,,,23,0,23,0,,,,,,,,,,,,,,,,,,,,,,,,,,,,,,,,,,,,,,915.9164550459991,None,915.9164550459991,None,,,,,,,,,sub-06,12/03/2002,2: Female,08/09/2023,002,1: right,2023_Sep_08_1750,[FINAL]_fmri_multiplication,2021.2.3,59.96967405503158
block7.xlsx,,,,,,,,,,,,,,0,2,2,2,,,,,24,0,24,0,,,,,,,,,,,,,,,,,,,,,,,,,,,,,,,,,,,,,,916.9161438930005,None,916.9161438930005,None,,,,,,,,,sub-06,12/03/2002,2: Female,08/09/2023,002,1: right,2023_Sep_08_1750,[FINAL]_fmri_multiplication,2021.2.3,59.96967405503158
block7.xlsx,,,,,,,,,,,,,,0,2,2,2,,,,,25,0,25,0,,,,,,,,,,,,,,,,,,,,,,,,,,,,,,,,,,,,,,917.9174718409995,None,917.9174718409995,None,,,,,,,,,sub-06,12/03/2002,2: Female,08/09/2023,002,1: right,2023_Sep_08_1750,[FINAL]_fmri_multiplication,2021.2.3,59.96967405503158
block7.xlsx,,,,,,,,,,,,,,0,2,2,2,,,,,26,0,26,0,,,,,,,,,,,,,,,,,,,,,,,,,,,,,,,,,,,,,,918.9163992289996,None,918.9163992289996,None,,,,,,,,,sub-06,12/03/2002,2: Female,08/09/2023,002,1: right,2023_Sep_08_1750,[FINAL]_fmri_multiplication,2021.2.3,59.96967405503158
block7.xlsx,,,,,,,,,,,,,,0,2,2,2,,,,,27,0,27,0,,,,,,,,,,,,,,,,,,,,,,,,,,,,,,,,,,,,,,919.9162607590006,None,919.9162607590006,None,,,,,,,,,sub-06,12/03/2002,2: Female,08/09/2023,002,1: right,2023_Sep_08_1750,[FINAL]_fmri_multiplication,2021.2.3,59.96967405503158
block7.xlsx,,,,,,,,,,,,,,0,2,2,2,,,,,28,0,28,0,,,,,,,,,,,,,,,,,,,,,,,,,,,,,,,,,,,,,,920.9165191,None,920.9165191,None,,,,,,,,,sub-06,12/03/2002,2: Female,08/09/2023,002,1: right,2023_Sep_08_1750,[FINAL]_fmri_multiplication,2021.2.3,59.96967405503158
block7.xlsx,,,,,,,,,,,,,,0,2,2,2,,,,,29,0,29,0,,,,,,,,,,,,,,,,,,,,,,,,,,,,,,,,,,,,,,921.9068970589997,None,921.9068970589997,None,,,,,,,,,sub-06,12/03/2002,2: Female,08/09/2023,002,1: right,2023_Sep_08_1750,[FINAL]_fmri_multiplication,2021.2.3,59.96967405503158
block7.xlsx,,,,,,,,,,,,,,0,2,2,2,,,,,,,,,,,,,,,,,,,,,,,,,,,,,,,,,,,,,,,,,,,,,,,,,,,,,,,,,,sub-06,12/03/2002,2: Female,08/09/2023,002,1: right,2023_Sep_08_1750,[FINAL]_fmri_multiplication,2021.2.3,59.96967405503158
block8.xlsx,10,7.5,4.2,9 x 9,81,16,9 x 9 = 81,large-sized_low-interference,large-sized,low-interference,6,CorrectRESP,a,0,3,3,3,0,0,0,0,,,,,,,,,,,,,922.9160019379997,None,932.9361945719993,None,933.4158670029992,None,935.4157976349998,None,936.1660955389998,None,936.4155185550007,None,936.4155185550007,None,a,0,0.45425581299969053,936.4155185550007,None,936.8990977789999,None,936.8990977789999,None,d,0.14664480300052674,936.8990977789999,None,937.0655292020001,None,,,,,,,,,,,,,sub-06,12/03/2002,2: Female,08/09/2023,002,1: right,2023_Sep_08_1750,[FINAL]_fmri_multiplication,2021.2.3,59.96967405503158
block8.xlsx,21.7,7.5,5.5,5 x 4,20,8,4 x 5 = 20,small-sized_high-interference,small-sized,high-interference,8,CorrectRESP,a,0,3,3,3,0,1,1,1,,,,,,,,,,,,,,,941.2660959130008,None,941.7658829510001,None,943.7660942,None,944.5161187230005,None,944.7659575489997,None,944.7659575489997,None,a,0,0.3756939400009287,944.7659575489997,None,945.1656464,None,945.1656464,None,d,0.12811339399922872,945.1656464,None,945.3156490090005,None,,,,,,,,,,,,,sub-06,12/03/2002,2: Female,08/09/2023,002,1: right,2023_Sep_08_1750,[FINAL]_fmri_multiplication,2021.2.3,59.96967405503158
block8.xlsx,34.7,7.5,13.5,9 x 4,32,20,4 x 9 = 32,large-sized_high-interference,large-sized,high-interference,9,IncorrectRESP,d,0,3,3,3,0,2,2,2,,,,,,,,,,,,,,,950.8158401639994,None,951.3174512,None,953.3328588259992,None,954.0828511,None,954.3328532399992,None,954.3328532399992,None,d,0,0.47293509999872185,954.3328532399992,None,954.8325161920002,None,954.8325161920002,None,d,0.12529798500145262,954.8325161920002,None,954.9825722999994,None,,,,,,,,,,,,,sub-06,12/03/2002,2: Female,08/09/2023,002,1: right,2023_Sep_08_1750,[FINAL]_fmri_multiplication,2021.2.3,59.96967405503158
block8.xlsx,55.7,7.5,3.1,4 x 6,24,10,6 x 4 = 24,small-sized_high-interference,small-sized,high-interference,12,CorrectRESP,a,0,3,3,3,0,3,3,3,,,,,,,,,,,,,,,968.4826466,None,968.9829709669993,None,970.9827290779995,None,971.7329591609996,None,971.9823928860005,None,971.9823928860005,None,a,0,0.4154407070000161,971.9823928860005,None,972.4155803909998,None,972.4155803909998,None,d,0.14219536999917182,972.4155803909998,None,972.5824438229993,None,,,,,,,,,,,,,sub-06,12/03/2002,2: Female,08/09/2023,002,1: right,2023_Sep_08_1750,[FINAL]_fmri_multiplication,2021.2.3,59.96967405503158
block8.xlsx,66.3,7.5,7.7,2 x 6,10,6,6 x 2 = 10,small-sized_low-interference,small-sized,low-interference,3,IncorrectRESP,d,0,3,3,3,0,4,4,4,,,,,,,,,,,,,,,975.6827747,None,976.1827175779999,None,978.1827551759998,None,978.9328342779991,None,979.1813319100002,None,979.1813319100002,None,d,0,0.59233206,979.1813319100002,None,979.7990806149992,None,979.7990806149992,None,d,0.12658985200141615,979.7990806149992,None,979.9490022730006,None,,,,,,,,,,,,,sub-06,12/03/2002,2: Female,08/09/2023,002,1: right,2023_Sep_08_1750,[FINAL]_fmri_multiplication,2021.2.3,59.96967405503158
block8.xlsx,81.5,7.5,6.9,7 x 7,49,18,7 x 7 = 49,large-sized_low-interference,large-sized,low-interference,7,CorrectRESP,a,0,3,3,3,0,5,5,5,,,,,,,,,,,,,,,987.6490896819996,None,988.1497897,None,990.1494930240005,None,990.8996953,None,991.1496175720004,None,991.1496175720004,None,a,0,0.3840644849988166,991.1496175720004,None,991.5663741219996,None,991.5663741219996,None,d,0.11928805699972145,991.5663741219996,None,991.7165842539998,None,,,,,,,,,,,,,sub-06,12/03/2002,2: Female,08/09/2023,002,1: right,2023_Sep_08_1750,[FINAL]_fmri_multiplication,2021.2.3,59.96967405503158
block8.xlsx,95.9,7.5,12.3,2 x 6,12,6,6 x 2 = 12,small-sized_low-interference,small-sized,low-interference,3,CorrectRESP,a,0,3,3,3,0,6,6,6,,,,,,,,,,,,,,,998.6121562589997,None,999.1086279230003,None,1001.1168220740001,None,1001.8661885799993,None,1002.1158996510003,None,1002.1158996510003,None,a,0,0.3857685350012616,1002.1158996510003,None,1002.5323166069993,None,1002.5323166069993,None,d,0.1214604889992188,1002.5323166069993,None,1002.682732,None,,,,,,,,,,,,,sub-06,12/03/2002,2: Female,08/09/2023,002,1: right,2023_Sep_08_1750,[FINAL]_fmri_multiplication,2021.2.3,59.96967405503158
block8.xlsx,115.7,7.5,2.7,7 x 8,63,22,8 x 7 = 63,large-sized_high-interference,large-sized,high-interference,9,IncorrectRESP,d,0,3,3,3,0,7,7,7,,,,,,,,,,,,,,,1014.9827124500007,None,1015.4824582439996,None,1017.4822090010002,None,1018.2327473940004,None,1018.48269,None,1018.48269,None,d,0,0.4349937540009705,1018.48269,None,1018.9494901540002,None,1018.9494901540002,None,d,0.10422953799934476,1018.9494901540002,None,1019.0821992700003,None,,,,,,,,,,,,,sub-06,12/03/2002,2: Female,08/09/2023,002,1: right,2023_Sep_08_1750,[FINAL]_fmri_multiplication,2021.2.3,59.96967405503158
block8.xlsx,125.9,7.5,7.8,9 x 2,16,2,2 x 9 = 16,small-sized_low-interference,small-sized,low-interference,7,IncorrectRESP,d,0,3,3,3,0,8,8,8,,,,,,,,,,,,,,,1021.7822330309991,None,1022.2816387010007,None,1024.2829166829997,None,1025.0326065200006,None,1025.2826272210004,None,1025.2826272210004,None,d,0,0.45905819200015685,1025.2826272210004,None,1025.7658994560006,None,1025.7658994560006,None,d,0.11974896999890916,1025.7658994560006,None,1025.916439,None,,,,,,,,,,,,,sub-06,12/03/2002,2: Female,08/09/2023,002,1: right,2023_Sep_08_1750,[FINAL]_fmri_multiplication,2021.2.3,59.96967405503158
block8.xlsx,141.2,7.5,2.9,8 x 3,24,12,3 x 8 = 24,small-sized_high-interference,small-sized,high-interference,13,CorrectRESP,a,0,3,3,3,0,9,9,9,,,,,,,,,,,,,,,1033.713417347999,None,1034.2290188799998,None,1036.233225,None,1036.9825749169995,None,1037.2306960139995,None,1037.2306960139995,None,a,0,0.42298231099994155,1037.2306960139995,None,1037.6826399250003,None,1037.6826399250003,None,d,0.12308448600015254,1037.6826399250003,None,1037.8325297190004,None,,,,,,,,,,,,,sub-06,12/03/2002,2: Female,08/09/2023,002,1: right,2023_Sep_08_1750,[FINAL]_fmri_multiplication,2021.2.3,59.96967405503158
block8.xlsx,151.6,7.5,2,4 x 8,32,24,8 x 4 = 32,large-sized_high-interference,large-sized,high-interference,25,CorrectRESP,a,0,3,3,3,0,10,10,10,,,,,,,,,,,,,,,1040.7326749200001,None,1041.2321710590004,None,1043.2326443969996,None,1043.9826179289994,None,1044.2322479649993,None,1044.2322479649993,None,a,0,0.41347950100134767,1044.2322479649993,None,1044.6655194369996,None,1044.6655194369996,None,d,0.11628952799947001,1044.6655194369996,None,1044.7989281190003,None,,,,,,,,,,,,,sub-06,12/03/2002,2: Female,08/09/2023,002,1: right,2023_Sep_08_1750,[FINAL]_fmri_multiplication,2021.2.3,59.96967405503158
block8.xlsx,161.1,7.5,13.1,9 x 9,72,16,9 x 9 = 72,large-sized_low-interference,large-sized,low-interference,6,IncorrectRESP,d,0,3,3,3,0,11,11,11,,,,,,,,,,,,,,,1046.7991809449995,None,1047.2992919009994,None,1049.2994037810004,None,1050.049347,None,1050.2993344909992,None,1050.2993344909992,None,d,0,0.4744290220005496,1050.2993344909992,None,1050.7990510050004,None,1050.7990510050004,None,d,0.134645416,1050.7990510050004,None,1050.9660434109992,None,,,,,,,,,,,,,sub-06,12/03/2002,2: Female,08/09/2023,002,1: right,2023_Sep_08_1750,[FINAL]_fmri_multiplication,2021.2.3,59.96967405503158
block8.xlsx,181.7,7.5,2.4,5 x 4,16,8,4 x 5 = 16,small-sized_high-interference,small-sized,high-interference,8,IncorrectRESP,d,0,3,3,3,0,12,12,12,,,,,,,,,,,,,,,1064.0630540420007,None,1064.5597278200003,None,1066.5664774470006,None,1067.3164321620006,None,1067.5662494070002,None,1067.5662494070002,None,d,0,0.4715355600001203,1067.5662494070002,None,1068.0664693990002,None,1068.0664693990002,None,d,0.12330491200009419,1068.0664693990002,None,1068.2161209219994,None,,,,,,,,,,,,,sub-06,12/03/2002,2: Female,08/09/2023,002,1: right,2023_Sep_08_1750,[FINAL]_fmri_multiplication,2021.2.3,59.96967405503158
block8.xlsx,191.6,7.5,5.7,7 x 7,56,18,7 x 7 = 56,large-sized_low-interference,large-sized,low-interference,7,IncorrectRESP,d,0,3,3,3,0,13,13,13,,,,,,,,,,,,,,,1070.616136397999,None,1071.1161438979998,None,1073.1160536240004,None,1073.8661214860003,None,1074.1158993230001,None,1074.1158993230001,None,d,0,0.44187407400022494,1074.1158993230001,None,1074.582329679999,None,1074.582329679999,None,d,0.1593072569994547,1074.582329679999,None,1074.7659281510005,None,,,,,,,,,,,,,sub-06,12/03/2002,2: Female,08/09/2023,002,1: right,2023_Sep_08_1750,[FINAL]_fmri_multiplication,2021.2.3,59.96967405503158
block8.xlsx,204.8,7.5,2.2,9 x 2,18,2,2 x 9 = 18,small-sized_low-interference,small-sized,low-interference,7,CorrectRESP,a,0,3,3,3,0,14,14,14,,,,,,,,,,,,,,,1080.4661357139994,None,1080.9643082080001,None,1082.9661093100003,None,1083.7161703799993,None,1083.965834999999,None,1083.965834999999,None,a,0,0.4798885729996982,1083.965834999999,None,1084.4655921060003,None,1084.4655921060003,None,d,0.1481967319996329,1084.4655921060003,None,1084.6321962290003,None,,,,,,,,,,,,,sub-06,12/03/2002,2: Female,08/09/2023,002,1: right,2023_Sep_08_1750,[FINAL]_fmri_multiplication,2021.2.3,59.96967405503158
block8.xlsx,214.5,7.5,5.2,8 x 3,21,12,3 x 8 = 21,small-sized_high-interference,small-sized,high-interference,13,IncorrectRESP,d,0,3,3,3,0,15,15,15,,,,,,,,,,,,,,,1086.832723,None,1087.332593,None,1089.3328271129994,None,1090.082771,None,1090.3330134419994,None,1090.3330134419994,None,d,0,0.48074544399969454,1090.3330134419994,None,1090.8322381340004,None,1090.8322381340004,None,d,0.12554574400019192,1090.8322381340004,None,1090.9823775589994,None,,,,,,,,,,,,,sub-06,12/03/2002,2: Female,08/09/2023,002,1: right,2023_Sep_08_1750,[FINAL]_fmri_multiplication,2021.2.3,59.96967405503158
block8.xlsx,227.2,7.5,3.8,4 x 4,20,4,4 x 4 = 20,small-sized_low-interference,small-sized,low-interference,5,IncorrectRESP,d,0,3,3,3,0,16,16,16,,,,,,,,,,,,,,,1096.18266,None,1096.6828943689998,None,1098.6799414350007,None,1099.4209893759999,None,1099.6686802990007,None,1099.6686802990007,None,d,0,0.45701610499963863,1099.6686802990007,None,1100.1494354919996,None,1100.1494354919996,None,d,0.14435721000154444,1100.1494354919996,None,1100.3160745740006,None,,,,,,,,,,,,,sub-06,12/03/2002,2: Female,08/09/2023,002,1: right,2023_Sep_08_1750,[FINAL]_fmri_multiplication,2021.2.3,59.96967405503158
block8.xlsx,238.5,7.5,2,4 x 6,28,10,6 x 4 = 28,small-sized_high-interference,small-sized,high-interference,12,IncorrectRESP,d,0,3,3,3,0,17,17,17,,,,,,,,,,,,,,,1104.1164871740002,None,1104.6161102679998,None,1106.6160148889994,None,1107.3661201569994,None,1107.6152616979998,None,1107.6152616979998,None,d,0,0.4864120340007503,1107.6152616979998,None,1108.13243,None,1108.13243,None,d,0.12928088399894477,1108.13243,None,1108.282189055999,None,,,,,,,,,,,,,sub-06,12/03/2002,2: Female,08/09/2023,002,1: right,2023_Sep_08_1750,[FINAL]_fmri_multiplication,2021.2.3,59.96967405503158
block8.xlsx,248,7.5,4,6 x 5,30,14,5 x 6 = 30,large-sized_low-interference,large-sized,low-interference,6,CorrectRESP,a,0,3,3,3,0,18,18,18,,,,,,,,,,,,,,,1110.2825017979994,None,1110.7826703579995,None,1112.7825643920005,None,1113.5327834830005,None,1113.782658,None,1113.782658,None,a,0,0.5190136000001075,1113.782658,None,1114.3328789949992,None,1114.3328789949992,None,d,0.14480689400079427,1114.3328789949992,None,1114.498998,None,,,,,,,,,,,,,sub-06,12/03/2002,2: Female,08/09/2023,002,1: right,2023_Sep_08_1750,[FINAL]_fmri_multiplication,2021.2.3,59.96967405503158
block8.xlsx,259.5,7.5,11.3,7 x 8,56,22,8 x 7 = 56,large-sized_high-interference,large-sized,high-interference,9,CorrectRESP,a,0,3,3,3,0,19,19,19,,,,,,,,,,,,,,,1118.4994837520007,None,1118.9994694359993,None,1120.9985993720002,None,1121.749220493999,None,1121.9991160270001,None,1121.9991160270001,None,a,0,0.46258585400028096,1121.9991160270001,None,1122.482325,None,1122.482325,None,d,0.12345349699899089,1122.482325,None,1122.6318130670006,None,,,,,,,,,,,,,sub-06,12/03/2002,2: Female,08/09/2023,002,1: right,2023_Sep_08_1750,[FINAL]_fmri_multiplication,2021.2.3,59.96967405503158
block8.xlsx,278.3,7.5,10.9,6 x 5,36,14,5 x 6 = 36,large-sized_low-interference,large-sized,low-interference,6,IncorrectRESP,d,0,3,3,3,0,20,20,20,,,,,,,,,,,,,,,1133.9331975509995,None,1134.432565748999,None,1136.4330896949996,None,1137.1833582529998,None,1137.4338022110005,None,1137.4338022110005,None,d,0,0.5799133980017359,1137.4338022110005,None,1138.032577984999,None,1138.032577984999,None,d,0.1331767729989224,1138.032577984999,None,1138.1826395879998,None,,,,,,,,,,,,,sub-06,12/03/2002,2: Female,08/09/2023,002,1: right,2023_Sep_08_1750,[FINAL]_fmri_multiplication,2021.2.3,59.96967405503158
block8.xlsx,296.7,7.5,3.5,9 x 4,36,20,4 x 9 = 36,large-sized_high-interference,large-sized,high-interference,9,CorrectRESP,a,0,3,3,3,0,21,21,21,,,,,,,,,,,,,,,1149.082667,None,1149.5823048229995,None,1151.5826034750007,None,1152.3327374830005,None,1152.5825893090005,None,1152.5825893090005,None,a,0,0.4791173930007062,1152.5825893090005,None,1153.0822819339992,None,1153.0822819339992,None,d,0.1314663279990782,1153.0822819339992,None,1153.2322709639993,None,,,,,,,,,,,,,sub-06,12/03/2002,2: Female,08/09/2023,002,1: right,2023_Sep_08_1750,[FINAL]_fmri_multiplication,2021.2.3,59.96967405503158
block8.xlsx,307.7,7.5,2.9,4 x 4,16,4,4 x 4 = 16,small-sized_low-interference,small-sized,low-interference,5,CorrectRESP,a,0,3,3,3,0,22,22,22,,,,,,,,,,,,,,,1156.7323303430003,None,1157.232840708999,None,1159.2327701190006,None,1159.9826996129996,None,1160.2321396030002,None,1160.2321396030002,None,a,0,0.5256332500011922,1160.2321396030002,None,1160.782192622999,None,1160.782192622999,None,d,0.11945176199878915,1160.782192622999,None,1160.9323287009993,None,,,,,,,,,,,,,sub-06,12/03/2002,2: Female,08/09/2023,002,1: right,2023_Sep_08_1750,[FINAL]_fmri_multiplication,2021.2.3,59.96967405503158
block8.xlsx,318.1,7.5,9.4,4 x 8,28,24,8 x 4 = 28,large-sized_high-interference,large-sized,high-interference,25,IncorrectRESP,d,0,3,3,3,0,23,23,23,,,,,,,,,,,,,,,1163.832712682999,None,1164.3326123459992,None,1166.3331003599997,None,1167.0828975019995,None,1167.333336,None,1167.333336,None,d,0,0.46440367400100513,1167.333336,None,1167.81301,None,1167.81301,None,d,0.10460135200082732,1167.81301,None,1167.9467130089997,None,,,,,,,,,,,,,sub-06,12/03/2002,2: Female,08/09/2023,002,1: right,2023_Sep_08_1750,[FINAL]_fmri_multiplication,2021.2.3,59.96967405503158
block8.xlsx,,,,,,,,,,,,,,0,3,3,3,,,,,0,0,0,0,,,,,,,,,,,,,,,,,,,,,,,,,,,,,,,,,,,,,,1177.3492157460005,None,1177.3492157460005,None,,,,,,,,,sub-06,12/03/2002,2: Female,08/09/2023,002,1: right,2023_Sep_08_1750,[FINAL]_fmri_multiplication,2021.2.3,59.96967405503158
block8.xlsx,,,,,,,,,,,,,,0,3,3,3,,,,,1,0,1,0,,,,,,,,,,,,,,,,,,,,,,,,,,,,,,,,,,,,,,1178.3493895369993,1178.3493895369993,1178.3493895369993,1178.3493895369993,,,,,,,,,sub-06,12/03/2002,2: Female,08/09/2023,002,1: right,2023_Sep_08_1750,[FINAL]_fmri_multiplication,2021.2.3,59.96967405503158
block8.xlsx,,,,,,,,,,,,,,0,3,3,3,,,,,2,0,2,0,,,,,,,,,,,,,,,,,,,,,,,,,,,,,,,,,,,,,,1179.349066,1179.349066,1179.349066,1179.349066,,,,,,,,,sub-06,12/03/2002,2: Female,08/09/2023,002,1: right,2023_Sep_08_1750,[FINAL]_fmri_multiplication,2021.2.3,59.96967405503158
block8.xlsx,,,,,,,,,,,,,,0,3,3,3,,,,,3,0,3,0,,,,,,,,,,,,,,,,,,,,,,,,,,,,,,,,,,,,,,1180.3491595310006,1180.3491595310006,1180.3491595310006,1180.3491595310006,,,,,,,,,sub-06,12/03/2002,2: Female,08/09/2023,002,1: right,2023_Sep_08_1750,[FINAL]_fmri_multiplication,2021.2.3,59.96967405503158
block8.xlsx,,,,,,,,,,,,,,0,3,3,3,,,,,4,0,4,0,,,,,,,,,,,,,,,,,,,,,,,,,,,,,,,,,,,,,,1181.3496812939993,1181.3496812939993,1181.3496812939993,1181.3496812939993,,,,,,,,,sub-06,12/03/2002,2: Female,08/09/2023,002,1: right,2023_Sep_08_1750,[FINAL]_fmri_multiplication,2021.2.3,59.96967405503158
block8.xlsx,,,,,,,,,,,,,,0,3,3,3,,,,,5,0,5,0,,,,,,,,,,,,,,,,,,,,,,,,,,,,,,,,,,,,,,1182.3502016319999,1182.3502016319999,1182.3502016319999,1182.3502016319999,,,,,,,,,sub-06,12/03/2002,2: Female,08/09/2023,002,1: right,2023_Sep_08_1750,[FINAL]_fmri_multiplication,2021.2.3,59.96967405503158
block8.xlsx,,,,,,,,,,,,,,0,3,3,3,,,,,6,0,6,0,,,,,,,,,,,,,,,,,,,,,,,,,,,,,,,,,,,,,,1183.3500520359994,1183.3500520359994,1183.3500520359994,1183.3500520359994,,,,,,,,,sub-06,12/03/2002,2: Female,08/09/2023,002,1: right,2023_Sep_08_1750,[FINAL]_fmri_multiplication,2021.2.3,59.96967405503158
block8.xlsx,,,,,,,,,,,,,,0,3,3,3,,,,,7,0,7,0,,,,,,,,,,,,,,,,,,,,,,,,,,,,,,,,,,,,,,1184.3668238089995,None,1184.3668238089995,None,,,,,,,,,sub-06,12/03/2002,2: Female,08/09/2023,002,1: right,2023_Sep_08_1750,[FINAL]_fmri_multiplication,2021.2.3,59.96967405503158
block8.xlsx,,,,,,,,,,,,,,0,3,3,3,,,,,8,0,8,0,,,,,,,,,,,,,,,,,,,,,,,,,,,,,,,,,,,,,,1185.3664397739994,None,1185.3664397739994,None,,,,,,,,,sub-06,12/03/2002,2: Female,08/09/2023,002,1: right,2023_Sep_08_1750,[FINAL]_fmri_multiplication,2021.2.3,59.96967405503158
block8.xlsx,,,,,,,,,,,,,,0,3,3,3,,,,,9,0,9,0,,,,,,,,,,,,,,,,,,,,,,,,,,,,,,,,,,,,,,1186.3670610810004,None,1186.3670610810004,None,,,,,,,,,sub-06,12/03/2002,2: Female,08/09/2023,002,1: right,2023_Sep_08_1750,[FINAL]_fmri_multiplication,2021.2.3,59.96967405503158
block8.xlsx,,,,,,,,,,,,,,0,3,3,3,,,,,10,0,10,0,,,,,,,,,,,,,,,,,,,,,,,,,,,,,,,,,,,,,,1187.3664775510006,None,1187.3664775510006,None,,,,,,,,,sub-06,12/03/2002,2: Female,08/09/2023,002,1: right,2023_Sep_08_1750,[FINAL]_fmri_multiplication,2021.2.3,59.96967405503158
block8.xlsx,,,,,,,,,,,,,,0,3,3,3,,,,,11,0,11,0,,,,,,,,,,,,,,,,,,,,,,,,,,,,,,,,,,,,,,1188.3662223280007,None,1188.3662223280007,None,,,,,,,,,sub-06,12/03/2002,2: Female,08/09/2023,002,1: right,2023_Sep_08_1750,[FINAL]_fmri_multiplication,2021.2.3,59.96967405503158
block8.xlsx,,,,,,,,,,,,,,0,3,3,3,,,,,12,0,12,0,,,,,,,,,,,,,,,,,,,,,,,,,,,,,,,,,,,,,,1189.3661047999994,None,1189.3661047999994,None,,,,,,,,,sub-06,12/03/2002,2: Female,08/09/2023,002,1: right,2023_Sep_08_1750,[FINAL]_fmri_multiplication,2021.2.3,59.96967405503158
block8.xlsx,,,,,,,,,,,,,,0,3,3,3,,,,,13,0,13,0,,,,,,,,,,,,,,,,,,,,,,,,,,,,,,,,,,,,,,1190.3660415079994,None,1190.3660415079994,None,,,,,,,,,sub-06,12/03/2002,2: Female,08/09/2023,002,1: right,2023_Sep_08_1750,[FINAL]_fmri_multiplication,2021.2.3,59.96967405503158
block8.xlsx,,,,,,,,,,,,,,0,3,3,3,,,,,14,0,14,0,,,,,,,,,,,,,,,,,,,,,,,,,,,,,,,,,,,,,,1191.3661468499995,None,1191.3661468499995,None,,,,,,,,,sub-06,12/03/2002,2: Female,08/09/2023,002,1: right,2023_Sep_08_1750,[FINAL]_fmri_multiplication,2021.2.3,59.96967405503158
block8.xlsx,,,,,,,,,,,,,,0,3,3,3,,,,,15,0,15,0,,,,,,,,,,,,,,,,,,,,,,,,,,,,,,,,,,,,,,1192.366179,None,1192.366179,None,,,,,,,,,sub-06,12/03/2002,2: Female,08/09/2023,002,1: right,2023_Sep_08_1750,[FINAL]_fmri_multiplication,2021.2.3,59.96967405503158
block8.xlsx,,,,,,,,,,,,,,0,3,3,3,,,,,16,0,16,0,,,,,,,,,,,,,,,,,,,,,,,,,,,,,,,,,,,,,,1193.3659895599994,None,1193.3659895599994,None,,,,,,,,,sub-06,12/03/2002,2: Female,08/09/2023,002,1: right,2023_Sep_08_1750,[FINAL]_fmri_multiplication,2021.2.3,59.96967405503158
block8.xlsx,,,,,,,,,,,,,,0,3,3,3,,,,,17,0,17,0,,,,,,,,,,,,,,,,,,,,,,,,,,,,,,,,,,,,,,1194.3664257130004,None,1194.3664257130004,None,,,,,,,,,sub-06,12/03/2002,2: Female,08/09/2023,002,1: right,2023_Sep_08_1750,[FINAL]_fmri_multiplication,2021.2.3,59.96967405503158
block8.xlsx,,,,,,,,,,,,,,0,3,3,3,,,,,18,0,18,0,,,,,,,,,,,,,,,,,,,,,,,,,,,,,,,,,,,,,,1195.366215,None,1195.366215,None,,,,,,,,,sub-06,12/03/2002,2: Female,08/09/2023,002,1: right,2023_Sep_08_1750,[FINAL]_fmri_multiplication,2021.2.3,59.96967405503158
block8.xlsx,,,,,,,,,,,,,,0,3,3,3,,,,,19,0,19,0,,,,,,,,,,,,,,,,,,,,,,,,,,,,,,,,,,,,,,1196.3663033270004,None,1196.3663033270004,None,,,,,,,,,sub-06,12/03/2002,2: Female,08/09/2023,002,1: right,2023_Sep_08_1750,[FINAL]_fmri_multiplication,2021.2.3,59.96967405503158
block8.xlsx,,,,,,,,,,,,,,0,3,3,3,,,,,20,0,20,0,,,,,,,,,,,,,,,,,,,,,,,,,,,,,,,,,,,,,,1197.3664788469996,None,1197.3664788469996,None,,,,,,,,,sub-06,12/03/2002,2: Female,08/09/2023,002,1: right,2023_Sep_08_1750,[FINAL]_fmri_multiplication,2021.2.3,59.96967405503158
block8.xlsx,,,,,,,,,,,,,,0,3,3,3,,,,,21,0,21,0,,,,,,,,,,,,,,,,,,,,,,,,,,,,,,,,,,,,,,1198.3661097290005,None,1198.3661097290005,None,,,,,,,,,sub-06,12/03/2002,2: Female,08/09/2023,002,1: right,2023_Sep_08_1750,[FINAL]_fmri_multiplication,2021.2.3,59.96967405503158
block8.xlsx,,,,,,,,,,,,,,0,3,3,3,,,,,22,0,22,0,,,,,,,,,,,,,,,,,,,,,,,,,,,,,,,,,,,,,,1199.3664823729996,None,1199.3664823729996,None,,,,,,,,,sub-06,12/03/2002,2: Female,08/09/2023,002,1: right,2023_Sep_08_1750,[FINAL]_fmri_multiplication,2021.2.3,59.96967405503158
block8.xlsx,,,,,,,,,,,,,,0,3,3,3,,,,,23,0,23,0,,,,,,,,,,,,,,,,,,,,,,,,,,,,,,,,,,,,,,1200.3662589190008,None,1200.3662589190008,None,,,,,,,,,sub-06,12/03/2002,2: Female,08/09/2023,002,1: right,2023_Sep_08_1750,[FINAL]_fmri_multiplication,2021.2.3,59.96967405503158
block8.xlsx,,,,,,,,,,,,,,0,3,3,3,,,,,24,0,24,0,,,,,,,,,,,,,,,,,,,,,,,,,,,,,,,,,,,,,,1201.3659493169998,None,1201.3659493169998,None,,,,,,,,,sub-06,12/03/2002,2: Female,08/09/2023,002,1: right,2023_Sep_08_1750,[FINAL]_fmri_multiplication,2021.2.3,59.96967405503158
block8.xlsx,,,,,,,,,,,,,,0,3,3,3,,,,,25,0,25,0,,,,,,,,,,,,,,,,,,,,,,,,,,,,,,,,,,,,,,1202.3669029119992,None,1202.3669029119992,None,,,,,,,,,sub-06,12/03/2002,2: Female,08/09/2023,002,1: right,2023_Sep_08_1750,[FINAL]_fmri_multiplication,2021.2.3,59.96967405503158
block8.xlsx,,,,,,,,,,,,,,0,3,3,3,,,,,26,0,26,0,,,,,,,,,,,,,,,,,,,,,,,,,,,,,,,,,,,,,,1203.3664364489996,None,1203.3664364489996,None,,,,,,,,,sub-06,12/03/2002,2: Female,08/09/2023,002,1: right,2023_Sep_08_1750,[FINAL]_fmri_multiplication,2021.2.3,59.96967405503158
block8.xlsx,,,,,,,,,,,,,,0,3,3,3,,,,,27,0,27,0,,,,,,,,,,,,,,,,,,,,,,,,,,,,,,,,,,,,,,1204.366313,None,1204.366313,None,,,,,,,,,sub-06,12/03/2002,2: Female,08/09/2023,002,1: right,2023_Sep_08_1750,[FINAL]_fmri_multiplication,2021.2.3,59.96967405503158
block8.xlsx,,,,,,,,,,,,,,0,3,3,3,,,,,28,0,28,0,,,,,,,,,,,,,,,,,,,,,,,,,,,,,,,,,,,,,,1205.3661885740003,None,1205.3661885740003,None,,,,,,,,,sub-06,12/03/2002,2: Female,08/09/2023,002,1: right,2023_Sep_08_1750,[FINAL]_fmri_multiplication,2021.2.3,59.96967405503158
block8.xlsx,,,,,,,,,,,,,,0,3,3,3,,,,,29,0,29,0,,,,,,,,,,,,,,,,,,,,,,,,,,,,,,,,,,,,,,1206.3665915700003,None,1206.3665915700003,None,,,,,,,,,sub-06,12/03/2002,2: Female,08/09/2023,002,1: right,2023_Sep_08_1750,[FINAL]_fmri_multiplication,2021.2.3,59.96967405503158
block8.xlsx,,,,,,,,,,,,,,0,3,3,3,,,,,,,,,,,,,,,,,,,,,,,,,,,,,,,,,,,,,,,,,,,,,,,,,,,,,,,,,,sub-06,12/03/2002,2: Female,08/09/2023,002,1: right,2023_Sep_08_1750,[FINAL]_fmri_multiplication,2021.2.3,59.96967405503158
,,,,,,,,,,,,,,,,,,,,,,,,,,,,,,,,,,,,,,,,,,,,,,,,,,,,,,,,,,,,,,,,,,,1207.366521,1209.3665253960007,1209.3493282199997,None,y,495.7176410989996,1209.3493282199997,None,sub-06,12/03/2002,2: Female,08/09/2023,002,1: right,2023_Sep_08_1750,[FINAL]_fmri_multiplication,2021.2.3,59.96967405503158