blocks_file,start,dur,rest,mult_problemB,mult_options,stim_trial,mult_stim,type,ProblemSize,InterferenceLH,InterferenceLevel,mult_type,corrRESP,blocks_set.thisRepN,blocks_set.thisTrialN,blocks_set.thisN,blocks_set.thisIndex,TRIALS.thisRepN,TRIALS.thisTrialN,TRIALS.thisN,TRIALS.thisIndex,timer_loop.thisRepN,timer_loop.thisTrialN,timer_loop.thisN,timer_loop.thisIndex,WAIT_TEXT.started,WAIT_TEXT.stopped,scan_start_trigger.keys,scan_start_trigger.rt,scan_start_trigger.started,scan_start_trigger.stopped,MAIN_SCREEN.started,MAIN_SCREEN.stopped,Block_Text.started,Block_Text.stopped,asterisk500ms.started,asterisk500ms.stopped,mult_question_text.started,mult_question_text.stopped,equal_text.started,equal_text.stopped,blank250_text.started,blank250_text.stopped,Mult_OPTION.started,Mult_OPTION.stopped,Mult_YN.started,Mult_YN.stopped,Mult_Resp.keys,Mult_Resp.corr,Mult_Resp.rt,Mult_Resp.started,Mult_Resp.stopped,Strategy_Q.started,Strategy_Q.stopped,Strategy_Option.started,Strategy_Option.stopped,Strategy_RESP.keys,Strategy_RESP.rt,Strategy_RESP.started,Strategy_RESP.stopped,jitters.started,jitters.stopped,resting_text.started,resting_text.stopped,countdown_timer.started,countdown_timer.stopped,End_Text.started,End_Text.stopped,fixation.started,fixation.stopped,fixation_end.keys,fixation_end.rt,fixation_end.started,fixation_end.stopped,participant,Date of birth (DD/MM/YEAR),gender,Testing Date (DD/MM/YEAR),session,handedness,date,expName,psychopyVersion,frameRate
,,,,,,,,,,,,,,,,,,,,,,,,,,34.43065673599631,None,s,23.78732297100214,34.43065673599631,None,,,,,,,,,,,,,,,,,,,,,,,,,,,,,,,,,,,,,,,,,,,,sub-20,03/04/2003,2: Female,15/10/2023,001,1: right,2023_Oct_15_1218,[FINAL]_fmri_multiplication,2021.2.3,60.06420070149866
block1.xlsx,10,7.5,15.3,6 x 6,36,13,6 x 6 = 36,large-sized_low-interference,large-sized,low-interference,4,CorrectRESP,a,0,0,0,0,0,0,0,0,,,,,,,,,,,58.250625717999355,None,63.26887184700172,None,73.27366489399719,None,73.7533887,None,75.75062914100272,None,76.50108921100036,None,76.75125611,None,76.75125611,None,d,0,0.7710516280058073,76.75125611,None,77.54973298800178,None,77.54973298800178,None,d,0.4765137560025323,77.54973298800178,None,78.05008766899846,None,,,,,,,,,,,,,sub-20,03/04/2003,2: Female,15/10/2023,001,1: right,2023_Oct_15_1218,[FINAL]_fmri_multiplication,2021.2.3,60.06420070149866
block1.xlsx,32.8,7.5,2.5,2 x 9,18,2,2 x 9 = 18,small-sized_low-interference,small-sized,low-interference,7,CorrectRESP,a,0,0,0,0,0,1,1,1,,,,,,,,,,,,,,,93.35006983399944,None,93.85290150399669,None,95.86719910000102,None,96.61720362000051,None,96.88126839199685,None,96.88126839199685,None,d,0,0.825034058,96.88126839199685,None,97.73346283200226,None,97.73346283200226,None,d,0.33282418199814856,97.73346283200226,None,98.08355257000221,None,,,,,,,,,,,,,sub-20,03/04/2003,2: Female,15/10/2023,001,1: right,2023_Oct_15_1218,[FINAL]_fmri_multiplication,2021.2.3,60.06420070149866
block1.xlsx,42.8,7.5,3.8,8 x 4,28,24,8 x 4 = 28,large-sized_high-interference,large-sized,high-interference,25,IncorrectRESP,d,0,0,0,0,0,2,2,2,,,,,,,,,,,,,,,100.58398435999698,None,101.09823947199766,None,103.1009415619992,None,103.85107185399829,None,104.09935915099777,None,104.09935915099777,None,a,0,0.8708029219997115,104.09935915099777,None,105.00090417899628,None,105.00090417899628,None,d,0.3933681099952082,105.00090417899628,None,105.41727290899871,None,,,,,,,,,,,,,sub-20,03/04/2003,2: Female,15/10/2023,001,1: right,2023_Oct_15_1218,[FINAL]_fmri_multiplication,2021.2.3,60.06420070149866
block1.xlsx,54.1,7.5,5.5,7 x 2,14,1,7 x 2 = 14,small-sized_low-interference,small-sized,low-interference,4,CorrectRESP,a,0,0,0,0,0,3,3,3,,,,,,,,,,,,,,,109.21755838100216,None,109.71920930300257,None,111.73397951300285,None,112.4840861010016,None,112.7336086610012,None,112.7336086610012,None,d,0,0.6525956350014894,112.7336086610012,None,113.41701973199815,None,113.41701973199815,None,d,0.2332540009956574,113.41701973199815,None,113.66670303799765,None,,,,,,,,,,,,,sub-20,03/04/2003,2: Female,15/10/2023,001,1: right,2023_Oct_15_1218,[FINAL]_fmri_multiplication,2021.2.3,60.06420070149866
block1.xlsx,67.1,7.5,3,7 x 7,56,18,7 x 7 = 56,large-sized_low-interference,large-sized,low-interference,7,IncorrectRESP,d,0,0,0,0,0,4,4,4,,,,,,,,,,,,,,,119.16726300500159,None,119.66683954800101,None,121.66730193999683,None,122.41734822499711,None,122.66863196199847,None,122.66863196199847,None,a,0,0.7015487960015889,122.66863196199847,None,123.4004117680015,None,123.4004117680015,None,d,0.2659227080002893,123.4004117680015,None,123.68332650700177,None,,,,,,,,,,,,,sub-20,03/04/2003,2: Female,15/10/2023,001,1: right,2023_Oct_15_1218,[FINAL]_fmri_multiplication,2021.2.3,60.06420070149866
block1.xlsx,77.6,7.5,2.1,3 x 4,12,9,3 x 4 = 12,small-sized_high-interference,small-sized,high-interference,10,CorrectRESP,a,0,0,0,0,0,5,5,5,,,,,,,,,,,,,,,126.68313501100056,None,127.1823734569989,None,129.18390989399632,None,129.93344769100077,None,130.18376326099678,None,130.18376326099678,None,d,0,0.5064663249941077,130.18376326099678,None,130.7165100380007,None,130.7165100380007,None,d,0.2457417309997254,130.7165100380007,None,130.98342382899864,None,,,,,,,,,,,,,sub-20,03/04/2003,2: Female,15/10/2023,001,1: right,2023_Oct_15_1218,[FINAL]_fmri_multiplication,2021.2.3,60.06420070149866
block1.xlsx,87.2,7.5,5,8 x 7,63,22,8 x 7 = 63,large-sized_high-interference,large-sized,high-interference,9,IncorrectRESP,d,0,0,0,0,0,6,6,6,,,,,,,,,,,,,,,133.08389494100265,None,133.5834145839981,None,135.58413855099934,None,136.33408213799703,None,136.5842625860023,None,136.5842625860023,None,a,0,0.9059638010003255,136.5842625860023,None,137.5059624389978,None,137.5059624389978,None,d,0.2642418600007659,137.5059624389978,None,137.8010924379996,None,,,,,,,,,,,,,sub-20,03/04/2003,2: Female,15/10/2023,001,1: right,2023_Oct_15_1218,[FINAL]_fmri_multiplication,2021.2.3,60.06420070149866
block1.xlsx,99.7,7.5,3,5 x 5,25,3,5 x 5 = 25,small-sized_low-interference,small-sized,low-interference,3,CorrectRESP,a,0,0,0,0,0,7,7,7,,,,,,,,,,,,,,,142.80022011599794,None,143.29909503799718,None,145.30051138199633,None,146.05071679299726,None,146.2991272040017,None,146.2991272040017,None,d,0,0.6391010079969419,146.2991272040017,None,146.96732150499884,None,146.96732150499884,None,d,0.21087739600625355,146.96732150499884,None,147.20015487400087,None,,,,,,,,,,,,,sub-20,03/04/2003,2: Female,15/10/2023,001,1: right,2023_Oct_15_1218,[FINAL]_fmri_multiplication,2021.2.3,60.06420070149866
block1.xlsx,110.2,7.5,6.5,6 x 4,28,10,6 x 4 = 28,small-sized_high-interference,small-sized,high-interference,12,IncorrectRESP,d,0,0,0,0,0,8,8,8,,,,,,,,,,,,,,,150.20064027100307,None,150.70009360899712,None,152.70006245200057,None,153.4506819620001,None,153.69875730200147,None,153.69875730200147,None,a,0,0.7353903100010939,153.69875730200147,None,154.46706627400272,None,154.46706627400272,None,d,0.23125130600237753,154.46706627400272,None,154.71661953500006,None,,,,,,,,,,,,,sub-20,03/04/2003,2: Female,15/10/2023,001,1: right,2023_Oct_15_1218,[FINAL]_fmri_multiplication,2021.2.3,60.06420070149866
block1.xlsx,124.2,7.5,5.7,5 x 8,40,21,5 x 8 = 40,large-sized_high-interference,large-sized,high-interference,9,CorrectRESP,a,0,0,0,0,0,9,9,9,,,,,,,,,,,,,,,161.21727343100065,None,161.71712638100144,None,163.71715029299958,None,164.46717238300334,None,164.71822122800222,None,164.71822122800222,None,d,0,0.6040770639956463,164.71822122800222,None,165.35006068099756,None,165.35006068099756,None,d,0.28413305499998387,165.35006068099756,None,165.66715976099658,None,,,,,,,,,,,,,sub-20,03/04/2003,2: Female,15/10/2023,001,1: right,2023_Oct_15_1218,[FINAL]_fmri_multiplication,2021.2.3,60.06420070149866
block1.xlsx,137.4,7.5,11.2,7 x 3,24,11,7 x 3 = 24,small-sized_high-interference,small-sized,high-interference,13,IncorrectRESP,d,0,0,0,0,0,10,10,10,,,,,,,,,,,,,,,171.36733049699978,None,171.88113876299758,None,173.88437112000247,None,174.6341707620013,None,174.88414355200075,None,174.88414355200075,None,a,0,0.838159071,174.88414355200075,None,175.75079142000322,None,175.75079142000322,None,d,0.25142391500412486,175.75079142000322,None,176.03415455499635,None,,,,,,,,,,,,,sub-20,03/04/2003,2: Female,15/10/2023,001,1: right,2023_Oct_15_1218,[FINAL]_fmri_multiplication,2021.2.3,60.06420070149866
block1.xlsx,156.1,7.5,6.9,5 x 6,30,14,5 x 6 = 30,large-sized_low-interference,large-sized,low-interference,6,CorrectRESP,a,0,0,0,0,0,11,11,11,,,,,,,,,,,,,,,187.2338370189973,None,187.73385223300284,None,189.73389590599982,None,190.48386088499683,None,190.73355736499798,None,190.73355736499798,None,d,0,0.8126635419976083,190.73355736499798,None,191.5654858630005,None,191.5654858630005,None,d,0.4926735800036113,191.5654858630005,None,192.08338071800245,None,,,,,,,,,,,,,sub-20,03/04/2003,2: Female,15/10/2023,001,1: right,2023_Oct_15_1218,[FINAL]_fmri_multiplication,2021.2.3,60.06420070149866
block1.xlsx,170.5,7.5,2.4,6 x 2,10,6,6 x 2 = 10,small-sized_low-interference,small-sized,low-interference,3,IncorrectRESP,d,0,0,0,0,0,12,12,12,,,,,,,,,,,,,,,198.98327382199932,None,199.48343902800116,None,201.48366343799717,None,202.23377102400264,None,202.48380007800006,None,202.48380007800006,None,a,0,0.7985102320017177,202.48380007800006,None,203.29900184799772,None,203.29900184799772,None,d,0.23924492399964947,203.29900184799772,None,203.5668438749999,None,,,,,,,,,,,,,sub-20,03/04/2003,2: Female,15/10/2023,001,1: right,2023_Oct_15_1218,[FINAL]_fmri_multiplication,2021.2.3,60.06420070149866
block1.xlsx,180.4,7.5,4.6,4 x 9,36,20,4 x 9 = 36,large-sized_high-interference,large-sized,high-interference,9,CorrectRESP,a,0,0,0,0,0,13,13,13,,,,,,,,,,,,,,,205.96741433699935,None,206.4672491320016,None,208.46774403400195,None,209.21760947899747,None,209.46742978999828,None,209.46742978999828,None,a,1,1.4307985760024167,209.46742978999828,None,210.91701522099902,None,210.91701522099902,None,a,0.6371835909958463,210.91701522099902,None,211.58435359899886,None,,,,,,,,,,,,,sub-20,03/04/2003,2: Female,15/10/2023,001,1: right,2023_Oct_15_1218,[FINAL]_fmri_multiplication,2021.2.3,60.06420070149866
block1.xlsx,192.5,7.5,9,7 x 5,40,17,7 x 5 = 40,large-sized_low-interference,large-sized,low-interference,7,IncorrectRESP,d,0,0,0,0,0,14,14,14,,,,,,,,,,,,,,,216.18414352800028,None,216.68338105399744,None,218.68459741600236,None,219.43393719699816,None,219.68345238299662,None,219.68345238299662,None,a,0,0.870738457,219.68345238299662,None,220.5881117129975,None,220.5881117129975,None,d,0.19808274299430195,220.5881117129975,None,220.81721836199722,None,,,,,,,,,,,,,sub-20,03/04/2003,2: Female,15/10/2023,001,1: right,2023_Oct_15_1218,[FINAL]_fmri_multiplication,2021.2.3,60.06420070149866
block1.xlsx,209,7.5,5.8,6 x 3,18,7,6 x 3 = 18,small-sized_high-interference,small-sized,high-interference,8,CorrectRESP,a,0,0,0,0,0,15,15,15,,,,,,,,,,,,,,,229.81732784199994,None,230.31697215700115,None,232.31675877200178,None,233.06644513100036,None,233.31689682899741,None,233.31689682899741,None,d,0,0.6054051390019595,233.31689682899741,None,233.94985572100268,None,233.94985572100268,None,d,0.25237118899531197,233.94985572100268,None,234.23331587499706,None,,,,,,,,,,,,,sub-20,03/04/2003,2: Female,15/10/2023,001,1: right,2023_Oct_15_1218,[FINAL]_fmri_multiplication,2021.2.3,60.06420070149866
block1.xlsx,222.3,7.5,2.9,7 x 6,48,23,7 x 6 = 48,large-sized_high-interference,large-sized,high-interference,22,IncorrectRESP,d,0,0,0,0,0,16,16,16,,,,,,,,,,,,,,,240.03388592400006,None,240.5338211,None,242.54183972699684,None,243.3007319640019,None,243.5509491959965,None,243.5509491959965,None,a,0,0.923346676,243.5509491959965,None,244.5003974229985,None,244.5003974229985,None,d,0.2139137460035272,244.5003974229985,None,244.73388890599745,None,,,,,,,,,,,,,sub-20,03/04/2003,2: Female,15/10/2023,001,1: right,2023_Oct_15_1218,[FINAL]_fmri_multiplication,2021.2.3,60.06420070149866
block1.xlsx,232.7,7.5,6.9,9 x 5,45,15,9 x 5 = 45,large-sized_low-interference,large-sized,low-interference,6,CorrectRESP,a,0,0,0,0,0,17,17,17,,,,,,,,,,,,,,,247.6343611179982,None,248.13411754000117,None,250.13449641499756,None,250.88425394299702,None,251.13337757599948,None,251.13337757599948,None,a,1,0.8688204889986082,251.13337757599948,None,252.03403350600274,None,252.03403350600274,None,d,0.2483290379968821,252.03403350600274,None,252.30020330599655,None,,,,,,,,,,,,,sub-20,03/04/2003,2: Female,15/10/2023,001,1: right,2023_Oct_15_1218,[FINAL]_fmri_multiplication,2021.2.3,60.06420070149866
block1.xlsx,247.1,7.5,2.5,4 x 4,20,4,4 x 4 = 20,small-sized_low-interference,small-sized,low-interference,5,IncorrectRESP,d,0,0,0,0,0,18,18,18,,,,,,,,,,,,,,,259.20061704499676,None,259.6998838319996,None,261.70010467700195,None,262.4505662540032,None,262.7002715260023,None,262.7002715260023,None,a,0,0.7179432439952507,262.7002715260023,None,263.4505026620027,None,263.4505026620027,None,d,0.14373166199948173,263.4505026620027,None,263.6167226230027,None,,,,,,,,,,,,,sub-20,03/04/2003,2: Female,15/10/2023,001,1: right,2023_Oct_15_1218,[FINAL]_fmri_multiplication,2021.2.3,60.06420070149866
block1.xlsx,257.1,7.5,3.7,9 x 3,27,19,9 x 3 = 27,large-sized_high-interference,large-sized,high-interference,9,CorrectRESP,a,0,0,0,0,0,19,19,19,,,,,,,,,,,,,,,266.1171368659998,None,266.61710739800037,None,268.61738726100157,None,269.36723518600047,None,269.61741348099895,None,269.61741348099895,None,None,0,,269.61741348099895,None,271.6172963279969,None,271.6172963279969,None,a,0.16100699500384508,271.6172963279969,None,271.79873110799963,None,,,,,,,,,,,,,sub-20,03/04/2003,2: Female,15/10/2023,001,1: right,2023_Oct_15_1218,[FINAL]_fmri_multiplication,2021.2.3,60.06420070149866
block1.xlsx,268.3,7.5,3.5,4 x 5,20,8,4 x 5 = 20,small-sized_high-interference,small-sized,high-interference,8,CorrectRESP,a,0,0,0,0,0,20,20,20,,,,,,,,,,,,,,,275.50069979499676,None,276.00037431799865,None,278.0019587650022,None,278.7470362509994,None,278.99286628999835,None,278.99286628999835,None,d,0,0.8813584200033802,278.99286628999835,None,279.90047441000206,None,279.90047441000206,None,a,0.40580528500140645,279.90047441000206,None,280.33434812499763,None,,,,,,,,,,,,,sub-20,03/04/2003,2: Female,15/10/2023,001,1: right,2023_Oct_15_1218,[FINAL]_fmri_multiplication,2021.2.3,60.06420070149866
block1.xlsx,279.3,7.5,11.6,9 x 9,72,16,9 x 9 = 72,large-sized_low-interference,large-sized,low-interference,6,IncorrectRESP,d,0,0,0,0,0,21,21,21,,,,,,,,,,,,,,,283.83432213000196,None,284.33405162699637,None,286.3342907499973,None,287.08410307399754,None,287.33519186599733,None,287.33519186599733,None,d,1,1.0590889760060236,287.33519186599733,None,288.4167659739978,None,288.4167659739978,None,a,0.4174248819981585,288.4167659739978,None,288.8674064060033,None,,,,,,,,,,,,,sub-20,03/04/2003,2: Female,15/10/2023,001,1: right,2023_Oct_15_1218,[FINAL]_fmri_multiplication,2021.2.3,60.06420070149866
block1.xlsx,298.4,7.5,12.8,3 x 8,21,12,3 x 8 = 21,small-sized_high-interference,small-sized,high-interference,13,IncorrectRESP,d,0,0,0,0,0,22,22,22,,,,,,,,,,,,,,,300.46661070900154,None,300.9669530379979,None,302.96714823100046,None,303.7172048529974,None,303.9670769000004,None,303.9670769000004,None,a,0,0.9631901469983859,303.9670769000004,None,304.94993326500116,None,304.94993326500116,None,d,0.588324766,304.94993326500116,None,305.5672175380023,None,,,,,,,,,,,,,sub-20,03/04/2003,2: Female,15/10/2023,001,1: right,2023_Oct_15_1218,[FINAL]_fmri_multiplication,2021.2.3,60.06420070149866
block1.xlsx,318.7,7.5,8.8,8 x 2,18,5,8 x 2 = 18,small-sized_low-interference,small-sized,low-interference,7,IncorrectRESP,d,0,0,0,0,0,23,23,23,,,,,,,,,,,,,,,318.36776340399956,None,318.8675793329967,None,320.86737000099674,None,321.6177498609977,None,321.86679435399856,None,321.86679435399856,None,a,0,0.8954426779964706,321.86679435399856,None,322.7834667749994,None,322.7834667749994,None,d,0.5309699450008338,322.7834667749994,None,323.33344408300036,None,,,,,,,,,,,,,sub-20,03/04/2003,2: Female,15/10/2023,001,1: right,2023_Oct_15_1218,[FINAL]_fmri_multiplication,2021.2.3,60.06420070149866
block1.xlsx,,,,,,,,,,,,,,0,0,0,0,,,,,0,0,0,0,,,,,,,,,,,,,,,,,,,,,,,,,,,,,,,,,,,,,,332.13644866800314,None,332.13644866800314,None,,,,,,,,,sub-20,03/04/2003,2: Female,15/10/2023,001,1: right,2023_Oct_15_1218,[FINAL]_fmri_multiplication,2021.2.3,60.06420070149866
block1.xlsx,,,,,,,,,,,,,,0,0,0,0,,,,,1,0,1,0,,,,,,,,,,,,,,,,,,,,,,,,,,,,,,,,,,,,,,333.1524212450022,None,333.1524212450022,None,,,,,,,,,sub-20,03/04/2003,2: Female,15/10/2023,001,1: right,2023_Oct_15_1218,[FINAL]_fmri_multiplication,2021.2.3,60.06420070149866
block1.xlsx,,,,,,,,,,,,,,0,0,0,0,,,,,2,0,2,0,,,,,,,,,,,,,,,,,,,,,,,,,,,,,,,,,,,,,,334.1519885779999,None,334.1519885779999,None,,,,,,,,,sub-20,03/04/2003,2: Female,15/10/2023,001,1: right,2023_Oct_15_1218,[FINAL]_fmri_multiplication,2021.2.3,60.06420070149866
block1.xlsx,,,,,,,,,,,,,,0,0,0,0,,,,,3,0,3,0,,,,,,,,,,,,,,,,,,,,,,,,,,,,,,,,,,,,,,335.1510020049973,None,335.1510020049973,None,,,,,,,,,sub-20,03/04/2003,2: Female,15/10/2023,001,1: right,2023_Oct_15_1218,[FINAL]_fmri_multiplication,2021.2.3,60.06420070149866
block1.xlsx,,,,,,,,,,,,,,0,0,0,0,,,,,4,0,4,0,,,,,,,,,,,,,,,,,,,,,,,,,,,,,,,,,,,,,,336.1515933019982,None,336.1515933019982,None,,,,,,,,,sub-20,03/04/2003,2: Female,15/10/2023,001,1: right,2023_Oct_15_1218,[FINAL]_fmri_multiplication,2021.2.3,60.06420070149866
block1.xlsx,,,,,,,,,,,,,,0,0,0,0,,,,,5,0,5,0,,,,,,,,,,,,,,,,,,,,,,,,,,,,,,,,,,,,,,337.15172408299986,None,337.15172408299986,None,,,,,,,,,sub-20,03/04/2003,2: Female,15/10/2023,001,1: right,2023_Oct_15_1218,[FINAL]_fmri_multiplication,2021.2.3,60.06420070149866
block1.xlsx,,,,,,,,,,,,,,0,0,0,0,,,,,6,0,6,0,,,,,,,,,,,,,,,,,,,,,,,,,,,,,,,,,,,,,,338.15212776899716,None,338.15212776899716,None,,,,,,,,,sub-20,03/04/2003,2: Female,15/10/2023,001,1: right,2023_Oct_15_1218,[FINAL]_fmri_multiplication,2021.2.3,60.06420070149866
block1.xlsx,,,,,,,,,,,,,,0,0,0,0,,,,,7,0,7,0,,,,,,,,,,,,,,,,,,,,,,,,,,,,,,,,,,,,,,339.15074084299704,None,339.15074084299704,None,,,,,,,,,sub-20,03/04/2003,2: Female,15/10/2023,001,1: right,2023_Oct_15_1218,[FINAL]_fmri_multiplication,2021.2.3,60.06420070149866
block1.xlsx,,,,,,,,,,,,,,0,0,0,0,,,,,8,0,8,0,,,,,,,,,,,,,,,,,,,,,,,,,,,,,,,,,,,,,,340.15092775099765,None,340.15092775099765,None,,,,,,,,,sub-20,03/04/2003,2: Female,15/10/2023,001,1: right,2023_Oct_15_1218,[FINAL]_fmri_multiplication,2021.2.3,60.06420070149866
block1.xlsx,,,,,,,,,,,,,,0,0,0,0,,,,,9,0,9,0,,,,,,,,,,,,,,,,,,,,,,,,,,,,,,,,,,,,,,341.1524282149985,None,341.1524282149985,None,,,,,,,,,sub-20,03/04/2003,2: Female,15/10/2023,001,1: right,2023_Oct_15_1218,[FINAL]_fmri_multiplication,2021.2.3,60.06420070149866
block1.xlsx,,,,,,,,,,,,,,0,0,0,0,,,,,10,0,10,0,,,,,,,,,,,,,,,,,,,,,,,,,,,,,,,,,,,,,,342.1508066410024,None,342.1508066410024,None,,,,,,,,,sub-20,03/04/2003,2: Female,15/10/2023,001,1: right,2023_Oct_15_1218,[FINAL]_fmri_multiplication,2021.2.3,60.06420070149866
block1.xlsx,,,,,,,,,,,,,,0,0,0,0,,,,,11,0,11,0,,,,,,,,,,,,,,,,,,,,,,,,,,,,,,,,,,,,,,343.15123719500116,None,343.15123719500116,None,,,,,,,,,sub-20,03/04/2003,2: Female,15/10/2023,001,1: right,2023_Oct_15_1218,[FINAL]_fmri_multiplication,2021.2.3,60.06420070149866
block1.xlsx,,,,,,,,,,,,,,0,0,0,0,,,,,12,0,12,0,,,,,,,,,,,,,,,,,,,,,,,,,,,,,,,,,,,,,,344.15174504699826,None,344.15174504699826,None,,,,,,,,,sub-20,03/04/2003,2: Female,15/10/2023,001,1: right,2023_Oct_15_1218,[FINAL]_fmri_multiplication,2021.2.3,60.06420070149866
block1.xlsx,,,,,,,,,,,,,,0,0,0,0,,,,,13,0,13,0,,,,,,,,,,,,,,,,,,,,,,,,,,,,,,,,,,,,,,345.1513373,None,345.1513373,None,,,,,,,,,sub-20,03/04/2003,2: Female,15/10/2023,001,1: right,2023_Oct_15_1218,[FINAL]_fmri_multiplication,2021.2.3,60.06420070149866
block1.xlsx,,,,,,,,,,,,,,0,0,0,0,,,,,14,0,14,0,,,,,,,,,,,,,,,,,,,,,,,,,,,,,,,,,,,,,,346.1512932639962,None,346.1512932639962,None,,,,,,,,,sub-20,03/04/2003,2: Female,15/10/2023,001,1: right,2023_Oct_15_1218,[FINAL]_fmri_multiplication,2021.2.3,60.06420070149866
block1.xlsx,,,,,,,,,,,,,,0,0,0,0,,,,,15,0,15,0,,,,,,,,,,,,,,,,,,,,,,,,,,,,,,,,,,,,,,347.13680863899936,None,347.13680863899936,None,,,,,,,,,sub-20,03/04/2003,2: Female,15/10/2023,001,1: right,2023_Oct_15_1218,[FINAL]_fmri_multiplication,2021.2.3,60.06420070149866
block1.xlsx,,,,,,,,,,,,,,0,0,0,0,,,,,16,0,16,0,,,,,,,,,,,,,,,,,,,,,,,,,,,,,,,,,,,,,,348.15161005599657,None,348.15161005599657,None,,,,,,,,,sub-20,03/04/2003,2: Female,15/10/2023,001,1: right,2023_Oct_15_1218,[FINAL]_fmri_multiplication,2021.2.3,60.06420070149866
block1.xlsx,,,,,,,,,,,,,,0,0,0,0,,,,,17,0,17,0,,,,,,,,,,,,,,,,,,,,,,,,,,,,,,,,,,,,,,349.1512563340002,None,349.1512563340002,None,,,,,,,,,sub-20,03/04/2003,2: Female,15/10/2023,001,1: right,2023_Oct_15_1218,[FINAL]_fmri_multiplication,2021.2.3,60.06420070149866
block1.xlsx,,,,,,,,,,,,,,0,0,0,0,,,,,18,0,18,0,,,,,,,,,,,,,,,,,,,,,,,,,,,,,,,,,,,,,,350.15101229099673,None,350.15101229099673,None,,,,,,,,,sub-20,03/04/2003,2: Female,15/10/2023,001,1: right,2023_Oct_15_1218,[FINAL]_fmri_multiplication,2021.2.3,60.06420070149866
block1.xlsx,,,,,,,,,,,,,,0,0,0,0,,,,,19,0,19,0,,,,,,,,,,,,,,,,,,,,,,,,,,,,,,,,,,,,,,351.15198880800017,None,351.15198880800017,None,,,,,,,,,sub-20,03/04/2003,2: Female,15/10/2023,001,1: right,2023_Oct_15_1218,[FINAL]_fmri_multiplication,2021.2.3,60.06420070149866
block1.xlsx,,,,,,,,,,,,,,0,0,0,0,,,,,20,0,20,0,,,,,,,,,,,,,,,,,,,,,,,,,,,,,,,,,,,,,,352.1493531,None,352.1493531,None,,,,,,,,,sub-20,03/04/2003,2: Female,15/10/2023,001,1: right,2023_Oct_15_1218,[FINAL]_fmri_multiplication,2021.2.3,60.06420070149866
block1.xlsx,,,,,,,,,,,,,,0,0,0,0,,,,,21,0,21,0,,,,,,,,,,,,,,,,,,,,,,,,,,,,,,,,,,,,,,353.15092403000017,None,353.15092403000017,None,,,,,,,,,sub-20,03/04/2003,2: Female,15/10/2023,001,1: right,2023_Oct_15_1218,[FINAL]_fmri_multiplication,2021.2.3,60.06420070149866
block1.xlsx,,,,,,,,,,,,,,0,0,0,0,,,,,22,0,22,0,,,,,,,,,,,,,,,,,,,,,,,,,,,,,,,,,,,,,,354.1516660260022,None,354.1516660260022,None,,,,,,,,,sub-20,03/04/2003,2: Female,15/10/2023,001,1: right,2023_Oct_15_1218,[FINAL]_fmri_multiplication,2021.2.3,60.06420070149866
block1.xlsx,,,,,,,,,,,,,,0,0,0,0,,,,,23,0,23,0,,,,,,,,,,,,,,,,,,,,,,,,,,,,,,,,,,,,,,355.1504412400027,None,355.1504412400027,None,,,,,,,,,sub-20,03/04/2003,2: Female,15/10/2023,001,1: right,2023_Oct_15_1218,[FINAL]_fmri_multiplication,2021.2.3,60.06420070149866
block1.xlsx,,,,,,,,,,,,,,0,0,0,0,,,,,24,0,24,0,,,,,,,,,,,,,,,,,,,,,,,,,,,,,,,,,,,,,,356.15078386299865,None,356.15078386299865,None,,,,,,,,,sub-20,03/04/2003,2: Female,15/10/2023,001,1: right,2023_Oct_15_1218,[FINAL]_fmri_multiplication,2021.2.3,60.06420070149866
block1.xlsx,,,,,,,,,,,,,,0,0,0,0,,,,,25,0,25,0,,,,,,,,,,,,,,,,,,,,,,,,,,,,,,,,,,,,,,357.1505901229975,None,357.1505901229975,None,,,,,,,,,sub-20,03/04/2003,2: Female,15/10/2023,001,1: right,2023_Oct_15_1218,[FINAL]_fmri_multiplication,2021.2.3,60.06420070149866
block1.xlsx,,,,,,,,,,,,,,0,0,0,0,,,,,26,0,26,0,,,,,,,,,,,,,,,,,,,,,,,,,,,,,,,,,,,,,,358.15045555899997,None,358.15045555899997,None,,,,,,,,,sub-20,03/04/2003,2: Female,15/10/2023,001,1: right,2023_Oct_15_1218,[FINAL]_fmri_multiplication,2021.2.3,60.06420070149866
block1.xlsx,,,,,,,,,,,,,,0,0,0,0,,,,,27,0,27,0,,,,,,,,,,,,,,,,,,,,,,,,,,,,,,,,,,,,,,359.1502827020013,None,359.1502827020013,None,,,,,,,,,sub-20,03/04/2003,2: Female,15/10/2023,001,1: right,2023_Oct_15_1218,[FINAL]_fmri_multiplication,2021.2.3,60.06420070149866
block1.xlsx,,,,,,,,,,,,,,0,0,0,0,,,,,28,0,28,0,,,,,,,,,,,,,,,,,,,,,,,,,,,,,,,,,,,,,,360.15033775199845,None,360.15033775199845,None,,,,,,,,,sub-20,03/04/2003,2: Female,15/10/2023,001,1: right,2023_Oct_15_1218,[FINAL]_fmri_multiplication,2021.2.3,60.06420070149866
block1.xlsx,,,,,,,,,,,,,,0,0,0,0,,,,,29,0,29,0,,,,,,,,,,,,,,,,,,,,,,,,,,,,,,,,,,,,,,361.1504421130012,None,361.1504421130012,None,,,,,,,,,sub-20,03/04/2003,2: Female,15/10/2023,001,1: right,2023_Oct_15_1218,[FINAL]_fmri_multiplication,2021.2.3,60.06420070149866
block1.xlsx,,,,,,,,,,,,,,0,0,0,0,,,,,,,,,,,,,,,,,,,,,,,,,,,,,,,,,,,,,,,,,,,,,,,,,,,,,,,,,,sub-20,03/04/2003,2: Female,15/10/2023,001,1: right,2023_Oct_15_1218,[FINAL]_fmri_multiplication,2021.2.3,60.06420070149866
block2.xlsx,10,7.5,3.4,3 x 4,15,9,3 x 4 = 15,small-sized_high-interference,small-sized,high-interference,10,IncorrectRESP,d,0,1,1,1,0,0,0,0,,,,,,,,,,,,,362.1502485,None,372.1709353019978,None,372.6504918740029,None,374.65049475800333,None,375.4006917180013,None,375.65055059600127,None,375.65055059600127,None,a,0,0.6477381170043373,375.65055059600127,None,376.31576732399844,None,376.31576732399844,None,d,0.21445555000536842,376.31576732399844,None,376.5500385359992,None,,,,,,,,,,,,,sub-20,03/04/2003,2: Female,15/10/2023,001,1: right,2023_Oct_15_1218,[FINAL]_fmri_multiplication,2021.2.3,60.06420070149866
block2.xlsx,20.9,7.5,7,9 x 5,40,15,9 x 5 = 40,large-sized_low-interference,large-sized,low-interference,6,IncorrectRESP,d,0,1,1,1,0,1,1,1,,,,,,,,,,,,,,,379.95062915799645,None,380.45031576300244,None,382.4507793649973,None,383.20102921099897,None,383.4508926560011,None,383.4508926560011,None,a,0,0.7993983359992853,383.4508926560011,None,384.2675909,None,384.2675909,None,d,0.19869109999854118,384.2675909,None,384.48383322099835,None,,,,,,,,,,,,,sub-20,03/04/2003,2: Female,15/10/2023,001,1: right,2023_Oct_15_1218,[FINAL]_fmri_multiplication,2021.2.3,60.06420070149866
block2.xlsx,35.4,7.5,6.6,6 x 4,24,10,6 x 4 = 24,small-sized_high-interference,small-sized,high-interference,12,CorrectRESP,a,0,1,1,1,0,2,2,2,,,,,,,,,,,,,,,391.4839387100001,None,391.98218451900175,None,393.9840214080032,None,394.73387542099954,None,394.98355998899933,None,394.98355998899933,None,d,0,0.6828236410001409,394.98355998899933,None,395.6836479370031,None,395.6836479370031,None,d,0.27062050799577264,395.6836479370031,None,395.9839547869997,None,,,,,,,,,,,,,sub-20,03/04/2003,2: Female,15/10/2023,001,1: right,2023_Oct_15_1218,[FINAL]_fmri_multiplication,2021.2.3,60.06420070149866
block2.xlsx,49.5,7.5,12,7 x 6,42,23,7 x 6 = 42,large-sized_high-interference,large-sized,high-interference,22,CorrectRESP,a,0,1,1,1,0,3,3,3,,,,,,,,,,,,,,,402.5839037409969,None,403.08317094200174,None,405.08321416800027,None,405.8339185090008,None,406.0833252,None,406.0833252,None,d,0,0.7508671709947521,406.0833252,None,406.8670961609969,None,406.8670961609969,None,d,0.22323750000214204,406.8670961609969,None,407.1208245,None,,,,,,,,,,,,,sub-20,03/04/2003,2: Female,15/10/2023,001,1: right,2023_Oct_15_1218,[FINAL]_fmri_multiplication,2021.2.3,60.06420070149866
block2.xlsx,69,7.5,4.9,6 x 2,12,6,6 x 2 = 12,small-sized_low-interference,small-sized,low-interference,3,CorrectRESP,a,0,1,1,1,0,4,4,4,,,,,,,,,,,,,,,419.11441142699914,None,419.6173877300025,None,421.6177442670014,None,422.36781851400156,None,422.6175893019972,None,422.6175893019972,None,d,0,0.5606749650032725,422.6175893019972,None,423.2003666419987,None,423.2003666419987,None,d,0.1778757400024915,423.2003666419987,None,423.4004874289967,None,,,,,,,,,,,,,sub-20,03/04/2003,2: Female,15/10/2023,001,1: right,2023_Oct_15_1218,[FINAL]_fmri_multiplication,2021.2.3,60.06420070149866
block2.xlsx,81.4,7.5,6.6,4 x 9,32,20,4 x 9 = 32,large-sized_high-interference,large-sized,high-interference,9,IncorrectRESP,d,0,1,1,1,0,5,5,5,,,,,,,,,,,,,,,428.30062810800155,None,428.8001791689967,None,430.80060093200154,None,431.5507106,None,431.80065033199935,None,431.80065033199935,None,d,1,1.1535439400031464,431.80065033199935,None,432.98369712600106,None,432.98369712600106,None,a,0.3065002299990738,432.98369712600106,None,433.3168612,None,,,,,,,,,,,,,sub-20,03/04/2003,2: Female,15/10/2023,001,1: right,2023_Oct_15_1218,[FINAL]_fmri_multiplication,2021.2.3,60.06420070149866
block2.xlsx,95.5,7.5,2.6,5 x 5,30,3,5 x 5 = 30,small-sized_low-interference,small-sized,low-interference,3,IncorrectRESP,d,0,1,1,1,0,6,6,6,,,,,,,,,,,,,,,439.9173819,None,440.4167366979964,None,442.4173571400024,None,443.1671761,None,443.4174293269971,None,443.4174293269971,None,a,0,0.7687633310051751,443.4174293269971,None,444.2172264949986,None,444.2172264949986,None,d,0.23298875500040594,444.2172264949986,None,444.46719708699675,None,,,,,,,,,,,,,sub-20,03/04/2003,2: Female,15/10/2023,001,1: right,2023_Oct_15_1218,[FINAL]_fmri_multiplication,2021.2.3,60.06420070149866
block2.xlsx,105.6,7.5,3.7,8 x 4,32,24,8 x 4 = 32,large-sized_high-interference,large-sized,high-interference,25,CorrectRESP,a,0,1,1,1,0,7,7,7,,,,,,,,,,,,,,,447.0669285249969,None,447.5657249450014,None,449.56722341899876,None,450.31719569500274,None,450.56584066899813,None,450.56584066899813,None,d,0,1.1403611299974727,450.56584066899813,None,451.73383541899966,None,451.73383541899966,None,a,0.5244477980013471,451.73383541899966,None,452.2835380339966,None,,,,,,,,,,,,,sub-20,03/04/2003,2: Female,15/10/2023,001,1: right,2023_Oct_15_1218,[FINAL]_fmri_multiplication,2021.2.3,60.06420070149866
block2.xlsx,116.8,7.5,3.1,2 x 9,16,2,2 x 9 = 16,small-sized_low-interference,small-sized,low-interference,7,IncorrectRESP,d,0,1,1,1,0,8,8,8,,,,,,,,,,,,,,,455.98078814199835,None,456.4770011979999,None,458.4843767860002,None,459.23427924599673,None,459.4826766050028,None,459.4826766050028,None,a,0,0.679486644,459.4826766050028,None,460.18366595599946,None,460.18366595599946,None,d,0.2425619790010387,460.18366595599946,None,460.4503978310022,None,,,,,,,,,,,,,sub-20,03/04/2003,2: Female,15/10/2023,001,1: right,2023_Oct_15_1218,[FINAL]_fmri_multiplication,2021.2.3,60.06420070149866
block2.xlsx,127.4,7.5,12.2,5 x 8,45,21,5 x 8 = 45,large-sized_high-interference,large-sized,high-interference,9,IncorrectRESP,d,0,1,1,1,0,9,9,9,,,,,,,,,,,,,,,463.5508437440003,None,464.05042457499803,None,466.05062159399677,None,466.80076053599623,None,467.05043076499715,None,467.05043076499715,None,a,0,0.9438475800052402,467.05043076499715,None,468.01683670000057,None,468.01683670000057,None,d,0.29741969000315294,468.01683670000057,None,468.33348157999717,None,,,,,,,,,,,,,sub-20,03/04/2003,2: Female,15/10/2023,001,1: right,2023_Oct_15_1218,[FINAL]_fmri_multiplication,2021.2.3,60.06420070149866
block2.xlsx,147.1,7.5,13.3,6 x 6,30,13,6 x 6 = 30,large-sized_low-interference,large-sized,low-interference,4,IncorrectRESP,d,0,1,1,1,0,10,10,10,,,,,,,,,,,,,,,480.53378093599895,None,481.03327276399796,None,483.03392298799736,None,483.78352672800247,None,484.0328171880028,None,484.0328171880028,None,a,0,0.85744269,484.0328171880028,None,484.9154565459976,None,484.9154565459976,None,d,0.2546513449997292,484.9154565459976,None,485.20076292400336,None,,,,,,,,,,,,,sub-20,03/04/2003,2: Female,15/10/2023,001,1: right,2023_Oct_15_1218,[FINAL]_fmri_multiplication,2021.2.3,60.06420070149866
block2.xlsx,167.9,7.5,2.8,7 x 3,21,11,7 x 3 = 21,small-sized_high-interference,small-sized,high-interference,13,CorrectRESP,a,0,1,1,1,0,11,11,11,,,,,,,,,,,,,,,498.5006349890027,None,499.00022832599643,None,500.9992263250024,None,501.75065087500116,None,501.99900362399785,None,501.99900362399785,None,d,0,0.7231603149994044,501.99900362399785,None,502.74907196999993,None,502.74907196999993,None,d,0.23708248799812282,502.74907196999993,None,503.0168702730007,None,,,,,,,,,,,,,sub-20,03/04/2003,2: Female,15/10/2023,001,1: right,2023_Oct_15_1218,[FINAL]_fmri_multiplication,2021.2.3,60.06420070149866
block2.xlsx,178.2,7.5,3.4,8 x 7,56,22,8 x 7 = 56,large-sized_high-interference,large-sized,high-interference,9,CorrectRESP,a,0,1,1,1,0,12,12,12,,,,,,,,,,,,,,,505.81729889899725,None,506.3156759659978,None,508.3172042410006,None,509.0672299860016,None,509.3168376829999,None,509.3168376829999,None,d,0,0.7974526199977845,509.3168376829999,None,510.1333467,None,510.1333467,None,d,0.27686974000243936,510.1333467,None,510.4334359229979,None,,,,,,,,,,,,,sub-20,03/04/2003,2: Female,15/10/2023,001,1: right,2023_Oct_15_1218,[FINAL]_fmri_multiplication,2021.2.3,60.06420070149866
block2.xlsx,189.1,7.5,3.9,3 x 8,24,12,3 x 8 = 24,small-sized_high-interference,small-sized,high-interference,13,CorrectRESP,a,0,1,1,1,0,13,13,13,,,,,,,,,,,,,,,513.8334239,None,514.3335791529971,None,516.3339123909973,None,517.0838991950004,None,517.3332292580017,None,517.3332292580017,None,d,0,0.6769810580008198,517.3332292580017,None,518.0333930380002,None,518.0333930380002,None,d,0.22483573699719273,518.0333930380002,None,518.2832541559983,None,,,,,,,,,,,,,sub-20,03/04/2003,2: Female,15/10/2023,001,1: right,2023_Oct_15_1218,[FINAL]_fmri_multiplication,2021.2.3,60.06420070149866
block2.xlsx,200.5,7.5,2,5 x 6,36,14,5 x 6 = 36,large-sized_low-interference,large-sized,low-interference,6,IncorrectRESP,d,0,1,1,1,0,14,14,14,,,,,,,,,,,,,,,522.1840710800025,None,522.6837051740004,None,524.6844306540006,None,525.4344127919976,None,525.6846489980016,None,525.6846489980016,None,a,0,0.6615959920018213,525.6846489980016,None,526.3671125519977,None,526.3671125519977,None,d,0.20307172300090315,526.3671125519977,None,526.6010836369969,None,,,,,,,,,,,,,sub-20,03/04/2003,2: Female,15/10/2023,001,1: right,2023_Oct_15_1218,[FINAL]_fmri_multiplication,2021.2.3,60.06420070149866
block2.xlsx,210,7.5,8.2,7 x 2,12,1,7 x 2 = 12,small-sized_low-interference,small-sized,low-interference,4,IncorrectRESP,d,0,1,1,1,0,15,15,15,,,,,,,,,,,,,,,528.6008642539964,None,529.1007752139994,None,531.1008911789977,None,531.8507633030022,None,532.1009778669977,None,532.1009778669977,None,a,0,0.7172120089962846,532.1009778669977,None,532.8506996720025,None,532.8506996720025,None,d,0.20760980599879986,532.8506996720025,None,533.0837768689962,None,,,,,,,,,,,,,sub-20,03/04/2003,2: Female,15/10/2023,001,1: right,2023_Oct_15_1218,[FINAL]_fmri_multiplication,2021.2.3,60.06420070149866
block2.xlsx,225.7,7.5,6.5,9 x 9,81,16,9 x 9 = 81,large-sized_low-interference,large-sized,low-interference,6,CorrectRESP,a,0,1,1,1,0,16,16,16,,,,,,,,,,,,,,,541.2838859309995,None,541.7835638830002,None,543.7838944499963,None,544.5337593500008,None,544.7836901900009,None,544.7836901900009,None,a,1,1.7545319609998842,544.7836901900009,None,546.5669639629996,None,546.5669639629996,None,d,0.1553221529975417,546.5669639629996,None,546.7505325300008,None,,,,,,,,,,,,,sub-20,03/04/2003,2: Female,15/10/2023,001,1: right,2023_Oct_15_1218,[FINAL]_fmri_multiplication,2021.2.3,60.06420070149866
block2.xlsx,239.7,7.5,6.2,4 x 5,16,8,4 x 5 = 16,small-sized_high-interference,small-sized,high-interference,8,IncorrectRESP,d,0,1,1,1,0,17,17,17,,,,,,,,,,,,,,,553.2505075549998,None,553.7507379770032,None,555.7502676509976,None,556.5009893090028,None,556.7673637710031,None,556.7673637710031,None,a,0,0.6749387599993497,556.7673637710031,None,557.4668445889984,None,557.4668445889984,None,d,0.191464948,557.4668445889984,None,557.6837859220032,None,,,,,,,,,,,,,sub-20,03/04/2003,2: Female,15/10/2023,001,1: right,2023_Oct_15_1218,[FINAL]_fmri_multiplication,2021.2.3,60.06420070149866
block2.xlsx,253.4,7.5,11.8,8 x 2,16,5,8 x 2 = 16,small-sized_low-interference,small-sized,low-interference,7,CorrectRESP,a,0,1,1,1,0,18,18,18,,,,,,,,,,,,,,,563.8842438970023,None,564.3840228560002,None,566.3843894739985,None,567.1342243940016,None,567.3838392819962,None,567.3838392819962,None,d,0,0.8503625029989053,567.3838392819962,None,568.2671862,None,568.2671862,None,d,0.3110967289976543,568.2671862,None,568.6002786730023,None,,,,,,,,,,,,,sub-20,03/04/2003,2: Female,15/10/2023,001,1: right,2023_Oct_15_1218,[FINAL]_fmri_multiplication,2021.2.3,60.06420070149866
block2.xlsx,272.7,7.5,3.7,7 x 5,35,17,7 x 5 = 35,large-sized_low-interference,large-sized,low-interference,7,CorrectRESP,a,0,1,1,1,0,19,19,19,,,,,,,,,,,,,,,580.4000774,None,580.8998715650014,None,582.9002584729969,None,583.6505269469999,None,583.9001892789965,None,583.9001892789965,None,a,1,0.6940496739989612,583.9001892789965,None,584.6167742,None,584.6167742,None,d,0.2974988889982342,584.6167742,None,584.9333888559995,None,,,,,,,,,,,,,sub-20,03/04/2003,2: Female,15/10/2023,001,1: right,2023_Oct_15_1218,[FINAL]_fmri_multiplication,2021.2.3,60.06420070149866
block2.xlsx,283.9,7.5,6,6 x 3,15,7,6 x 3 = 15,small-sized_high-interference,small-sized,high-interference,8,IncorrectRESP,d,0,1,1,1,0,20,20,20,,,,,,,,,,,,,,,588.6334589440012,None,589.1334366439987,None,591.1335108560015,None,591.8837079069999,None,592.1341550409998,None,592.1341550409998,None,a,0,0.820039224,592.1341550409998,None,592.9838655679996,None,592.9838655679996,None,d,0.1944543550052913,592.9838655679996,None,593.2003682360009,None,,,,,,,,,,,,,sub-20,03/04/2003,2: Female,15/10/2023,001,1: right,2023_Oct_15_1218,[FINAL]_fmri_multiplication,2021.2.3,60.06420070149866
block2.xlsx,297.4,7.5,6.1,9 x 3,24,19,9 x 3 = 24,large-sized_high-interference,large-sized,high-interference,9,IncorrectRESP,d,0,1,1,1,0,21,21,21,,,,,,,,,,,,,,,599.1968575099963,None,599.6923141180014,None,601.7008353600031,None,602.4511059400029,None,602.7001794690004,None,602.7001794690004,None,a,0,0.6460256879945518,602.7001794690004,None,603.3668251060008,None,603.3668251060008,None,d,0.17941843099833932,603.3668251060008,None,603.5666327569998,None,,,,,,,,,,,,,sub-20,03/04/2003,2: Female,15/10/2023,001,1: right,2023_Oct_15_1218,[FINAL]_fmri_multiplication,2021.2.3,60.06420070149866
block2.xlsx,311,7.5,5.1,4 x 4,16,4,4 x 4 = 16,small-sized_low-interference,small-sized,low-interference,5,CorrectRESP,a,0,1,1,1,0,22,22,22,,,,,,,,,,,,,,,609.6671212000001,None,610.1668912,None,612.167241,None,612.9172435419969,None,613.1657871159987,None,613.1657871159987,None,d,0,0.7484352169994963,613.1657871159987,None,613.9321092,None,613.9321092,None,d,0.29407495300256414,613.9321092,None,614.2506718559962,None,,,,,,,,,,,,,sub-20,03/04/2003,2: Female,15/10/2023,001,1: right,2023_Oct_15_1218,[FINAL]_fmri_multiplication,2021.2.3,60.06420070149866
block2.xlsx,323.6,7.5,3.9,7 x 7,49,18,7 x 7 = 49,large-sized_low-interference,large-sized,low-interference,7,CorrectRESP,a,0,1,1,1,0,23,23,23,,,,,,,,,,,,,,,619.3501105289979,None,619.8503708950011,None,621.8505361189964,None,622.6005154789964,None,622.8504141349986,None,622.8504141349986,None,d,0,0.6158643779999693,622.8504141349986,None,623.4835671390028,None,623.4835671390028,None,d,0.3106872249991284,623.4835671390028,None,623.8168027759966,None,,,,,,,,,,,,,sub-20,03/04/2003,2: Female,15/10/2023,001,1: right,2023_Oct_15_1218,[FINAL]_fmri_multiplication,2021.2.3,60.06420070149866
block2.xlsx,,,,,,,,,,,,,,0,1,1,1,,,,,0,0,0,0,,,,,,,,,,,,,,,,,,,,,,,,,,,,,,,,,,,,,,627.7202075750029,None,627.7202075750029,None,,,,,,,,,sub-20,03/04/2003,2: Female,15/10/2023,001,1: right,2023_Oct_15_1218,[FINAL]_fmri_multiplication,2021.2.3,60.06420070149866
block2.xlsx,,,,,,,,,,,,,,0,1,1,1,,,,,1,0,1,0,,,,,,,,,,,,,,,,,,,,,,,,,,,,,,,,,,,,,,628.7345426050015,None,628.7345426050015,None,,,,,,,,,sub-20,03/04/2003,2: Female,15/10/2023,001,1: right,2023_Oct_15_1218,[FINAL]_fmri_multiplication,2021.2.3,60.06420070149866
block2.xlsx,,,,,,,,,,,,,,0,1,1,1,,,,,2,0,2,0,,,,,,,,,,,,,,,,,,,,,,,,,,,,,,,,,,,,,,629.7342379,None,629.7342379,None,,,,,,,,,sub-20,03/04/2003,2: Female,15/10/2023,001,1: right,2023_Oct_15_1218,[FINAL]_fmri_multiplication,2021.2.3,60.06420070149866
block2.xlsx,,,,,,,,,,,,,,0,1,1,1,,,,,3,0,3,0,,,,,,,,,,,,,,,,,,,,,,,,,,,,,,,,,,,,,,630.7359597000031,None,630.7359597000031,None,,,,,,,,,sub-20,03/04/2003,2: Female,15/10/2023,001,1: right,2023_Oct_15_1218,[FINAL]_fmri_multiplication,2021.2.3,60.06420070149866
block2.xlsx,,,,,,,,,,,,,,0,1,1,1,,,,,4,0,4,0,,,,,,,,,,,,,,,,,,,,,,,,,,,,,,,,,,,,,,631.7344718820023,None,631.7344718820023,None,,,,,,,,,sub-20,03/04/2003,2: Female,15/10/2023,001,1: right,2023_Oct_15_1218,[FINAL]_fmri_multiplication,2021.2.3,60.06420070149866
block2.xlsx,,,,,,,,,,,,,,0,1,1,1,,,,,5,0,5,0,,,,,,,,,,,,,,,,,,,,,,,,,,,,,,,,,,,,,,632.7351304979966,None,632.7351304979966,None,,,,,,,,,sub-20,03/04/2003,2: Female,15/10/2023,001,1: right,2023_Oct_15_1218,[FINAL]_fmri_multiplication,2021.2.3,60.06420070149866
block2.xlsx,,,,,,,,,,,,,,0,1,1,1,,,,,6,0,6,0,,,,,,,,,,,,,,,,,,,,,,,,,,,,,,,,,,,,,,633.7347383219967,None,633.7347383219967,None,,,,,,,,,sub-20,03/04/2003,2: Female,15/10/2023,001,1: right,2023_Oct_15_1218,[FINAL]_fmri_multiplication,2021.2.3,60.06420070149866
block2.xlsx,,,,,,,,,,,,,,0,1,1,1,,,,,7,0,7,0,,,,,,,,,,,,,,,,,,,,,,,,,,,,,,,,,,,,,,634.7341804469979,None,634.7341804469979,None,,,,,,,,,sub-20,03/04/2003,2: Female,15/10/2023,001,1: right,2023_Oct_15_1218,[FINAL]_fmri_multiplication,2021.2.3,60.06420070149866
block2.xlsx,,,,,,,,,,,,,,0,1,1,1,,,,,8,0,8,0,,,,,,,,,,,,,,,,,,,,,,,,,,,,,,,,,,,,,,635.7348493140016,None,635.7348493140016,None,,,,,,,,,sub-20,03/04/2003,2: Female,15/10/2023,001,1: right,2023_Oct_15_1218,[FINAL]_fmri_multiplication,2021.2.3,60.06420070149866
block2.xlsx,,,,,,,,,,,,,,0,1,1,1,,,,,9,0,9,0,,,,,,,,,,,,,,,,,,,,,,,,,,,,,,,,,,,,,,636.7339830280034,None,636.7339830280034,None,,,,,,,,,sub-20,03/04/2003,2: Female,15/10/2023,001,1: right,2023_Oct_15_1218,[FINAL]_fmri_multiplication,2021.2.3,60.06420070149866
block2.xlsx,,,,,,,,,,,,,,0,1,1,1,,,,,10,0,10,0,,,,,,,,,,,,,,,,,,,,,,,,,,,,,,,,,,,,,,637.7354568239971,None,637.7354568239971,None,,,,,,,,,sub-20,03/04/2003,2: Female,15/10/2023,001,1: right,2023_Oct_15_1218,[FINAL]_fmri_multiplication,2021.2.3,60.06420070149866
block2.xlsx,,,,,,,,,,,,,,0,1,1,1,,,,,11,0,11,0,,,,,,,,,,,,,,,,,,,,,,,,,,,,,,,,,,,,,,638.7338730830015,None,638.7338730830015,None,,,,,,,,,sub-20,03/04/2003,2: Female,15/10/2023,001,1: right,2023_Oct_15_1218,[FINAL]_fmri_multiplication,2021.2.3,60.06420070149866
block2.xlsx,,,,,,,,,,,,,,0,1,1,1,,,,,12,0,12,0,,,,,,,,,,,,,,,,,,,,,,,,,,,,,,,,,,,,,,639.7337965909974,None,639.7337965909974,None,,,,,,,,,sub-20,03/04/2003,2: Female,15/10/2023,001,1: right,2023_Oct_15_1218,[FINAL]_fmri_multiplication,2021.2.3,60.06420070149866
block2.xlsx,,,,,,,,,,,,,,0,1,1,1,,,,,13,0,13,0,,,,,,,,,,,,,,,,,,,,,,,,,,,,,,,,,,,,,,640.7337375200004,None,640.7337375200004,None,,,,,,,,,sub-20,03/04/2003,2: Female,15/10/2023,001,1: right,2023_Oct_15_1218,[FINAL]_fmri_multiplication,2021.2.3,60.06420070149866
block2.xlsx,,,,,,,,,,,,,,0,1,1,1,,,,,14,0,14,0,,,,,,,,,,,,,,,,,,,,,,,,,,,,,,,,,,,,,,641.7338896319998,None,641.7338896319998,None,,,,,,,,,sub-20,03/04/2003,2: Female,15/10/2023,001,1: right,2023_Oct_15_1218,[FINAL]_fmri_multiplication,2021.2.3,60.06420070149866
block2.xlsx,,,,,,,,,,,,,,0,1,1,1,,,,,15,0,15,0,,,,,,,,,,,,,,,,,,,,,,,,,,,,,,,,,,,,,,642.7337435489972,None,642.7337435489972,None,,,,,,,,,sub-20,03/04/2003,2: Female,15/10/2023,001,1: right,2023_Oct_15_1218,[FINAL]_fmri_multiplication,2021.2.3,60.06420070149866
block2.xlsx,,,,,,,,,,,,,,0,1,1,1,,,,,16,0,16,0,,,,,,,,,,,,,,,,,,,,,,,,,,,,,,,,,,,,,,643.7335404010009,None,643.7335404010009,None,,,,,,,,,sub-20,03/04/2003,2: Female,15/10/2023,001,1: right,2023_Oct_15_1218,[FINAL]_fmri_multiplication,2021.2.3,60.06420070149866
block2.xlsx,,,,,,,,,,,,,,0,1,1,1,,,,,17,0,17,0,,,,,,,,,,,,,,,,,,,,,,,,,,,,,,,,,,,,,,644.7336462,None,644.7336462,None,,,,,,,,,sub-20,03/04/2003,2: Female,15/10/2023,001,1: right,2023_Oct_15_1218,[FINAL]_fmri_multiplication,2021.2.3,60.06420070149866
block2.xlsx,,,,,,,,,,,,,,0,1,1,1,,,,,18,0,18,0,,,,,,,,,,,,,,,,,,,,,,,,,,,,,,,,,,,,,,645.7350809630007,None,645.7350809630007,None,,,,,,,,,sub-20,03/04/2003,2: Female,15/10/2023,001,1: right,2023_Oct_15_1218,[FINAL]_fmri_multiplication,2021.2.3,60.06420070149866
block2.xlsx,,,,,,,,,,,,,,0,1,1,1,,,,,19,0,19,0,,,,,,,,,,,,,,,,,,,,,,,,,,,,,,,,,,,,,,646.7337455829984,None,646.7337455829984,None,,,,,,,,,sub-20,03/04/2003,2: Female,15/10/2023,001,1: right,2023_Oct_15_1218,[FINAL]_fmri_multiplication,2021.2.3,60.06420070149866
block2.xlsx,,,,,,,,,,,,,,0,1,1,1,,,,,20,0,20,0,,,,,,,,,,,,,,,,,,,,,,,,,,,,,,,,,,,,,,647.7337521480003,None,647.7337521480003,None,,,,,,,,,sub-20,03/04/2003,2: Female,15/10/2023,001,1: right,2023_Oct_15_1218,[FINAL]_fmri_multiplication,2021.2.3,60.06420070149866
block2.xlsx,,,,,,,,,,,,,,0,1,1,1,,,,,21,0,21,0,,,,,,,,,,,,,,,,,,,,,,,,,,,,,,,,,,,,,,648.7337197610032,None,648.7337197610032,None,,,,,,,,,sub-20,03/04/2003,2: Female,15/10/2023,001,1: right,2023_Oct_15_1218,[FINAL]_fmri_multiplication,2021.2.3,60.06420070149866
block2.xlsx,,,,,,,,,,,,,,0,1,1,1,,,,,22,0,22,0,,,,,,,,,,,,,,,,,,,,,,,,,,,,,,,,,,,,,,649.7340060979986,None,649.7340060979986,None,,,,,,,,,sub-20,03/04/2003,2: Female,15/10/2023,001,1: right,2023_Oct_15_1218,[FINAL]_fmri_multiplication,2021.2.3,60.06420070149866
block2.xlsx,,,,,,,,,,,,,,0,1,1,1,,,,,23,0,23,0,,,,,,,,,,,,,,,,,,,,,,,,,,,,,,,,,,,,,,650.7333282260006,None,650.7333282260006,None,,,,,,,,,sub-20,03/04/2003,2: Female,15/10/2023,001,1: right,2023_Oct_15_1218,[FINAL]_fmri_multiplication,2021.2.3,60.06420070149866
block2.xlsx,,,,,,,,,,,,,,0,1,1,1,,,,,24,0,24,0,,,,,,,,,,,,,,,,,,,,,,,,,,,,,,,,,,,,,,651.7337151399988,None,651.7337151399988,None,,,,,,,,,sub-20,03/04/2003,2: Female,15/10/2023,001,1: right,2023_Oct_15_1218,[FINAL]_fmri_multiplication,2021.2.3,60.06420070149866
block2.xlsx,,,,,,,,,,,,,,0,1,1,1,,,,,25,0,25,0,,,,,,,,,,,,,,,,,,,,,,,,,,,,,,,,,,,,,,652.733972,None,652.733972,None,,,,,,,,,sub-20,03/04/2003,2: Female,15/10/2023,001,1: right,2023_Oct_15_1218,[FINAL]_fmri_multiplication,2021.2.3,60.06420070149866
block2.xlsx,,,,,,,,,,,,,,0,1,1,1,,,,,26,0,26,0,,,,,,,,,,,,,,,,,,,,,,,,,,,,,,,,,,,,,,653.7340246460008,None,653.7340246460008,None,,,,,,,,,sub-20,03/04/2003,2: Female,15/10/2023,001,1: right,2023_Oct_15_1218,[FINAL]_fmri_multiplication,2021.2.3,60.06420070149866
block2.xlsx,,,,,,,,,,,,,,0,1,1,1,,,,,27,0,27,0,,,,,,,,,,,,,,,,,,,,,,,,,,,,,,,,,,,,,,654.7344452260004,None,654.7344452260004,None,,,,,,,,,sub-20,03/04/2003,2: Female,15/10/2023,001,1: right,2023_Oct_15_1218,[FINAL]_fmri_multiplication,2021.2.3,60.06420070149866
block2.xlsx,,,,,,,,,,,,,,0,1,1,1,,,,,28,0,28,0,,,,,,,,,,,,,,,,,,,,,,,,,,,,,,,,,,,,,,655.7340775150005,None,655.7340775150005,None,,,,,,,,,sub-20,03/04/2003,2: Female,15/10/2023,001,1: right,2023_Oct_15_1218,[FINAL]_fmri_multiplication,2021.2.3,60.06420070149866
block2.xlsx,,,,,,,,,,,,,,0,1,1,1,,,,,29,0,29,0,,,,,,,,,,,,,,,,,,,,,,,,,,,,,,,,,,,,,,656.7340781820021,None,656.7340781820021,None,,,,,,,,,sub-20,03/04/2003,2: Female,15/10/2023,001,1: right,2023_Oct_15_1218,[FINAL]_fmri_multiplication,2021.2.3,60.06420070149866
block2.xlsx,,,,,,,,,,,,,,0,1,1,1,,,,,,,,,,,,,,,,,,,,,,,,,,,,,,,,,,,,,,,,,,,,,,,,,,,,,,,,,,sub-20,03/04/2003,2: Female,15/10/2023,001,1: right,2023_Oct_15_1218,[FINAL]_fmri_multiplication,2021.2.3,60.06420070149866
block3.xlsx,10,7.5,5.9,6 x 4,24,10,6 x 4 = 24,small-sized_high-interference,small-sized,high-interference,12,CorrectRESP,a,0,2,2,2,0,0,0,0,,,,,,,,,,,,,657.7352575429977,None,667.7561719770019,None,668.2340563640028,None,670.2343211059997,None,670.9844250960014,None,671.2344507509988,None,671.2344507509988,None,d,0,0.5917833169951336,671.2344507509988,None,671.8501113359962,None,671.8501113359962,None,d,0.35210656299750553,671.8501113359962,None,672.2338734279983,None,,,,,,,,,,,,,sub-20,03/04/2003,2: Female,15/10/2023,001,1: right,2023_Oct_15_1218,[FINAL]_fmri_multiplication,2021.2.3,60.06420070149866
block3.xlsx,23.4,7.5,2,6 x 6,30,13,6 x 6 = 30,large-sized_low-interference,large-sized,low-interference,4,IncorrectRESP,d,0,2,2,2,0,1,1,1,,,,,,,,,,,,,,,678.1332369369993,None,678.6325780789994,None,680.6338856599978,None,681.3839344630032,None,681.6337922149978,None,681.6337922149978,None,a,0,0.5844216129989945,681.6337922149978,None,682.2495877850015,None,682.2495877850015,None,d,0.3045672209991608,682.2495877850015,None,682.5839642869978,None,,,,,,,,,,,,,sub-20,03/04/2003,2: Female,15/10/2023,001,1: right,2023_Oct_15_1218,[FINAL]_fmri_multiplication,2021.2.3,60.06420070149866
block3.xlsx,32.9,7.5,3.2,2 x 9,18,2,2 x 9 = 18,small-sized_low-interference,small-sized,low-interference,7,CorrectRESP,a,0,2,2,2,0,2,2,2,,,,,,,,,,,,,,,684.5833605329972,None,685.0833563900014,None,687.0836522,None,687.8337278830004,None,688.0833723690012,None,688.0833723690012,None,d,0,0.718828155,688.0833723690012,None,688.8326852570026,None,688.8326852570026,None,d,0.20950397699925816,688.8326852570026,None,689.0670549029965,None,,,,,,,,,,,,,sub-20,03/04/2003,2: Female,15/10/2023,001,1: right,2023_Oct_15_1218,[FINAL]_fmri_multiplication,2021.2.3,60.06420070149866
block3.xlsx,43.6,7.5,6,3 x 4,12,9,3 x 4 = 12,small-sized_high-interference,small-sized,high-interference,10,CorrectRESP,a,0,2,2,2,0,3,3,3,,,,,,,,,,,,,,,692.2672088,None,692.7668142019975,None,694.7672357859992,None,695.5172674,None,695.7667267319994,None,695.7667267319994,None,d,0,0.5874803169936058,695.7667267319994,None,696.3839391619986,None,696.3839391619986,None,d,0.2182769300052314,696.3839391619986,None,696.6335584659973,None,,,,,,,,,,,,,sub-20,03/04/2003,2: Female,15/10/2023,001,1: right,2023_Oct_15_1218,[FINAL]_fmri_multiplication,2021.2.3,60.06420070149866
block3.xlsx,57.1,7.5,13.3,7 x 5,40,17,7 x 5 = 40,large-sized_low-interference,large-sized,low-interference,7,IncorrectRESP,d,0,2,2,2,0,4,4,4,,,,,,,,,,,,,,,702.6341497780013,None,703.1342044,None,705.1341590049997,None,705.8842236209966,None,706.1339489349994,None,706.1339489349994,None,a,0,0.6842263819999062,706.1339489349994,None,706.8493574,None,706.8493574,None,d,0.22482870100066066,706.8493574,None,707.1005992880018,None,,,,,,,,,,,,,sub-20,03/04/2003,2: Female,15/10/2023,001,1: right,2023_Oct_15_1218,[FINAL]_fmri_multiplication,2021.2.3,60.06420070149866
block3.xlsx,77.9,7.5,2,8 x 7,56,22,8 x 7 = 56,large-sized_high-interference,large-sized,high-interference,9,CorrectRESP,a,0,2,2,2,0,5,5,5,,,,,,,,,,,,,,,720.4004135,None,720.9002861420013,None,722.9005069139967,None,723.6505305,None,723.9003550209964,None,723.9003550209964,None,d,0,0.685835655,723.9003550209964,None,724.6171759159988,None,724.6171759159988,None,d,0.23304306699719746,724.6171759159988,None,724.8836335180022,None,,,,,,,,,,,,,sub-20,03/04/2003,2: Female,15/10/2023,001,1: right,2023_Oct_15_1218,[FINAL]_fmri_multiplication,2021.2.3,60.06420070149866
block3.xlsx,87.4,7.5,2.6,9 x 9,81,16,9 x 9 = 81,large-sized_low-interference,large-sized,low-interference,6,CorrectRESP,a,0,2,2,2,0,6,6,6,,,,,,,,,,,,,,,726.8835562109962,None,727.3834538,None,729.3839280710017,None,730.1338482,None,730.3834979680032,None,730.3834979680032,None,d,0,0.4347242980002193,730.3834979680032,None,730.8501624010023,None,730.8501624010023,None,d,0.2641177229961613,730.8501624010023,None,731.1335377630021,None,,,,,,,,,,,,,sub-20,03/04/2003,2: Female,15/10/2023,001,1: right,2023_Oct_15_1218,[FINAL]_fmri_multiplication,2021.2.3,60.06420070149866
block3.xlsx,97.5,7.5,2.7,4 x 5,20,8,4 x 5 = 20,small-sized_high-interference,small-sized,high-interference,8,CorrectRESP,a,0,2,2,2,0,7,7,7,,,,,,,,,,,,,,,733.7340577549985,None,734.233892,None,736.2344095149965,None,736.9842545349966,None,737.2348552,None,737.2348552,None,d,0,0.6314234300007229,737.2348552,None,737.8840028900013,None,737.8840028900013,None,d,0.2701924159991904,737.8840028900013,None,738.1843272,None,,,,,,,,,,,,,sub-20,03/04/2003,2: Female,15/10/2023,001,1: right,2023_Oct_15_1218,[FINAL]_fmri_multiplication,2021.2.3,60.06420070149866
block3.xlsx,107.7,7.5,8.4,9 x 3,24,19,9 x 3 = 24,large-sized_high-interference,large-sized,high-interference,9,IncorrectRESP,d,0,2,2,2,0,8,8,8,,,,,,,,,,,,,,,740.8843160480028,None,741.3841952639996,None,743.3841226820005,None,744.1337995,None,744.3837014,None,744.3837014,None,d,1,0.8425424460001523,744.3837014,None,745.2503027889979,None,745.2503027889979,None,a,0.7759118169997237,745.2503027889979,None,746.0505996860011,None,,,,,,,,,,,,,sub-20,03/04/2003,2: Female,15/10/2023,001,1: right,2023_Oct_15_1218,[FINAL]_fmri_multiplication,2021.2.3,60.06420070149866
block3.xlsx,123.6,7.5,2.2,9 x 5,45,15,9 x 5 = 45,large-sized_low-interference,large-sized,low-interference,6,CorrectRESP,a,0,2,2,2,0,9,9,9,,,,,,,,,,,,,,,754.4505256179982,None,754.9501618,None,756.9506736,None,757.7004649759983,None,757.9503387779987,None,757.9503387779987,None,d,0,0.4598499019994051,757.9503387779987,None,758.4334019360031,None,758.4334019360031,None,d,0.20889636100037023,758.4334019360031,None,758.6669891959973,None,,,,,,,,,,,,,sub-20,03/04/2003,2: Female,15/10/2023,001,1: right,2023_Oct_15_1218,[FINAL]_fmri_multiplication,2021.2.3,60.06420070149866
block3.xlsx,133.3,7.5,9.7,4 x 4,16,4,4 x 4 = 16,small-sized_low-interference,small-sized,low-interference,5,CorrectRESP,a,0,2,2,2,0,10,10,10,,,,,,,,,,,,,,,760.8667623919973,None,761.3667574380015,None,763.3671896550004,None,764.1171867180019,None,764.3670557450023,None,764.3670557450023,None,d,0,1.083229805000883,764.3670557450023,None,765.4671821369993,None,765.4671821369993,None,d,0.19923583199852146,765.4671821369993,None,765.6839166599966,None,,,,,,,,,,,,,sub-20,03/04/2003,2: Female,15/10/2023,001,1: right,2023_Oct_15_1218,[FINAL]_fmri_multiplication,2021.2.3,60.06420070149866
block3.xlsx,150.5,7.5,5.4,8 x 4,28,24,8 x 4 = 28,large-sized_high-interference,large-sized,high-interference,25,IncorrectRESP,d,0,2,2,2,0,11,11,11,,,,,,,,,,,,,,,775.3843995839998,None,775.8839400860015,None,777.8841951290015,None,778.6342147909963,None,778.8828589,None,778.8828589,None,a,0,0.7353027869976358,778.8828589,None,779.6490964999975,None,779.6490964999975,None,d,0.2810860050012707,779.6490964999975,None,779.9501726699964,None,,,,,,,,,,,,,sub-20,03/04/2003,2: Female,15/10/2023,001,1: right,2023_Oct_15_1218,[FINAL]_fmri_multiplication,2021.2.3,60.06420070149866
block3.xlsx,163.4,7.5,10.5,8 x 2,18,5,8 x 2 = 18,small-sized_low-interference,small-sized,low-interference,7,IncorrectRESP,d,0,2,2,2,0,12,12,12,,,,,,,,,,,,,,,785.3506318599975,None,785.8505293359995,None,787.8506091480012,None,788.6005223949978,None,788.8501367569988,None,788.8501367569988,None,a,0,0.8961086139970575,788.8501367569988,None,789.7655234850026,None,789.7655234850026,None,d,0.2206051729954197,789.7655234850026,None,790.0172674350033,None,,,,,,,,,,,,,sub-20,03/04/2003,2: Female,15/10/2023,001,1: right,2023_Oct_15_1218,[FINAL]_fmri_multiplication,2021.2.3,60.06420070149866
block3.xlsx,181.4,7.5,3.5,7 x 6,48,23,7 x 6 = 48,large-sized_high-interference,large-sized,high-interference,22,IncorrectRESP,d,0,2,2,2,0,13,13,13,,,,,,,,,,,,,,,800.5172433359985,None,801.0169162919992,None,803.0171805849968,None,803.7674186119984,None,804.0175263019992,None,804.0175263019992,None,a,0,0.7046604860006482,804.0175263019992,None,804.7512821440032,None,804.7512821440032,None,d,0.1789784740030882,804.7512821440032,None,804.9479073,None,,,,,,,,,,,,,sub-20,03/04/2003,2: Female,15/10/2023,001,1: right,2023_Oct_15_1218,[FINAL]_fmri_multiplication,2021.2.3,60.06420070149866
block3.xlsx,192.4,7.5,11.8,5 x 6,30,14,5 x 6 = 30,large-sized_low-interference,large-sized,low-interference,6,CorrectRESP,a,0,2,2,2,0,14,14,14,,,,,,,,,,,,,,,808.4505842610015,None,808.9504765460006,None,810.9510447,None,811.7011173209976,None,811.9507661679963,None,811.9507661679963,None,d,0,1.0594295990013052,811.9507661679963,None,813.0332184189974,None,813.0332184189974,None,d,0.18500256900006207,813.0332184189974,None,813.2510195529976,None,,,,,,,,,,,,,sub-20,03/04/2003,2: Female,15/10/2023,001,1: right,2023_Oct_15_1218,[FINAL]_fmri_multiplication,2021.2.3,60.06420070149866
block3.xlsx,211.7,7.5,3.7,4 x 9,36,20,4 x 9 = 36,large-sized_high-interference,large-sized,high-interference,9,CorrectRESP,a,0,2,2,2,0,15,15,15,,,,,,,,,,,,,,,825.0507665219993,None,825.5504496299982,None,827.5505351660031,None,828.3004564119983,None,828.5502751789973,None,828.5502751789973,None,d,0,1.011959431001742,828.5502751789973,None,829.5834294689994,None,829.5834294689994,None,d,0.2748602040010155,829.5834294689994,None,829.8832149,None,,,,,,,,,,,,,sub-20,03/04/2003,2: Female,15/10/2023,001,1: right,2023_Oct_15_1218,[FINAL]_fmri_multiplication,2021.2.3,60.06420070149866
block3.xlsx,222.9,7.5,2.5,7 x 7,56,18,7 x 7 = 56,large-sized_low-interference,large-sized,low-interference,7,IncorrectRESP,d,0,2,2,2,0,16,16,16,,,,,,,,,,,,,,,833.5838822060032,None,834.0833034180032,None,836.0839741449963,None,836.8340510690032,None,837.0835724,None,837.0835724,None,a,0,0.7107275580056012,837.0835724,None,837.8169797,None,837.8169797,None,d,0.37734262999583734,837.8169797,None,838.2169705580018,None,,,,,,,,,,,,,sub-20,03/04/2003,2: Female,15/10/2023,001,1: right,2023_Oct_15_1218,[FINAL]_fmri_multiplication,2021.2.3,60.06420070149866
block3.xlsx,232.9,7.5,9,6 x 3,15,7,6 x 3 = 15,small-sized_high-interference,small-sized,high-interference,8,IncorrectRESP,d,0,2,2,2,0,17,17,17,,,,,,,,,,,,,,,840.7145403920003,None,841.2083014579985,None,843.2175627,None,843.9671576679975,None,844.2177239899975,None,844.2177239899975,None,a,0,0.6245771260000765,844.2177239899975,None,844.8672617539996,None,844.8672617539996,None,d,0.22304655800689943,844.8672617539996,None,845.1174924070001,None,,,,,,,,,,,,,sub-20,03/04/2003,2: Female,15/10/2023,001,1: right,2023_Oct_15_1218,[FINAL]_fmri_multiplication,2021.2.3,60.06420070149866
block3.xlsx,249.4,7.5,9.5,7 x 2,12,1,7 x 2 = 12,small-sized_low-interference,small-sized,low-interference,4,IncorrectRESP,d,0,2,2,2,0,18,18,18,,,,,,,,,,,,,,,854.1169121540006,None,854.6177145940019,None,856.6173324,None,857.3671510830027,None,857.6158969370008,None,857.6158969370008,None,a,0,0.6743261239971616,857.6158969370008,None,858.3167866759977,None,858.3167866759977,None,d,0.20552399099688046,858.3167866759977,None,858.5505410330006,None,,,,,,,,,,,,,sub-20,03/04/2003,2: Female,15/10/2023,001,1: right,2023_Oct_15_1218,[FINAL]_fmri_multiplication,2021.2.3,60.06420070149866
block3.xlsx,266.4,7.5,11.1,5 x 8,40,21,5 x 8 = 40,large-sized_high-interference,large-sized,high-interference,9,CorrectRESP,a,0,2,2,2,0,19,19,19,,,,,,,,,,,,,,,868.0503634120032,None,868.5491092009979,None,870.5505999200032,None,871.3002572620026,None,871.5495925119976,None,871.5495925119976,None,d,0,0.7086252369990689,871.5495925119976,None,872.2833276629972,None,872.2833276629972,None,d,0.20690498200565344,872.2833276629972,None,872.5166852830007,None,,,,,,,,,,,,,sub-20,03/04/2003,2: Female,15/10/2023,001,1: right,2023_Oct_15_1218,[FINAL]_fmri_multiplication,2021.2.3,60.06420070149866
block3.xlsx,285,7.5,3.8,3 x 8,21,12,3 x 8 = 21,small-sized_high-interference,small-sized,high-interference,13,IncorrectRESP,d,0,2,2,2,0,20,20,20,,,,,,,,,,,,,,,883.6143846580017,None,884.1107021709977,None,886.1178549239994,None,886.8678186909965,None,887.1213459209976,None,887.1213459209976,None,a,0,0.7368421259961906,887.1213459209976,None,887.8838488490001,None,887.8838488490001,None,d,0.2783632780046901,887.8838488490001,None,888.183582,None,,,,,,,,,,,,,sub-20,03/04/2003,2: Female,15/10/2023,001,1: right,2023_Oct_15_1218,[FINAL]_fmri_multiplication,2021.2.3,60.06420070149866
block3.xlsx,296.3,7.5,11.2,5 x 5,25,3,5 x 5 = 25,small-sized_low-interference,small-sized,low-interference,3,CorrectRESP,a,0,2,2,2,0,21,21,21,,,,,,,,,,,,,,,891.9838466060028,None,892.4830345369992,None,894.4836101179972,None,895.2338812480011,None,895.4835006330031,None,895.4835006330031,None,d,0,0.5026931640022667,895.4835006330031,None,896.0172945529994,None,896.0172945529994,None,d,0.2009206520015141,896.0172945529994,None,896.2505028710002,None,,,,,,,,,,,,,sub-20,03/04/2003,2: Female,15/10/2023,001,1: right,2023_Oct_15_1218,[FINAL]_fmri_multiplication,2021.2.3,60.06420070149866
block3.xlsx,315,7.5,2.6,7 x 3,24,11,7 x 3 = 24,small-sized_high-interference,small-sized,high-interference,13,IncorrectRESP,d,0,2,2,2,0,22,22,22,,,,,,,,,,,,,,,907.4507387780031,None,907.9493060539971,None,909.9506404119966,None,910.6979452930027,None,910.9510159689962,None,910.9510159689962,None,a,0,0.6351830550047453,910.9510159689962,None,911.6176702320008,None,911.6176702320008,None,d,0.36065497800154844,911.6176702320008,None,912.0006784840007,None,,,,,,,,,,,,,sub-20,03/04/2003,2: Female,15/10/2023,001,1: right,2023_Oct_15_1218,[FINAL]_fmri_multiplication,2021.2.3,60.06420070149866
block3.xlsx,325.1,7.5,2.4,6 x 2,10,6,6 x 2 = 10,small-sized_low-interference,small-sized,low-interference,3,IncorrectRESP,d,0,2,2,2,0,23,23,23,,,,,,,,,,,,,,,914.6009617449963,None,915.1007326280014,None,917.1010314629966,None,917.8510442080005,None,918.1009528650029,None,918.1009528650029,None,a,0,0.6452694100007648,918.1009528650029,None,918.7666842,None,918.7666842,None,d,0.41951267900003586,918.7666842,None,919.2175904780015,None,,,,,,,,,,,,,sub-20,03/04/2003,2: Female,15/10/2023,001,1: right,2023_Oct_15_1218,[FINAL]_fmri_multiplication,2021.2.3,60.06420070149866
block3.xlsx,,,,,,,,,,,,,,0,2,2,2,,,,,0,0,0,0,,,,,,,,,,,,,,,,,,,,,,,,,,,,,,,,,,,,,,921.6200471929988,None,921.6200471929988,None,,,,,,,,,sub-20,03/04/2003,2: Female,15/10/2023,001,1: right,2023_Oct_15_1218,[FINAL]_fmri_multiplication,2021.2.3,60.06420070149866
block3.xlsx,,,,,,,,,,,,,,0,2,2,2,,,,,1,0,1,0,,,,,,,,,,,,,,,,,,,,,,,,,,,,,,,,,,,,,,922.6338905270022,None,922.6338905270022,None,,,,,,,,,sub-20,03/04/2003,2: Female,15/10/2023,001,1: right,2023_Oct_15_1218,[FINAL]_fmri_multiplication,2021.2.3,60.06420070149866
block3.xlsx,,,,,,,,,,,,,,0,2,2,2,,,,,2,0,2,0,,,,,,,,,,,,,,,,,,,,,,,,,,,,,,,,,,,,,,923.6323855730006,None,923.6323855730006,None,,,,,,,,,sub-20,03/04/2003,2: Female,15/10/2023,001,1: right,2023_Oct_15_1218,[FINAL]_fmri_multiplication,2021.2.3,60.06420070149866
block3.xlsx,,,,,,,,,,,,,,0,2,2,2,,,,,3,0,3,0,,,,,,,,,,,,,,,,,,,,,,,,,,,,,,,,,,,,,,924.6340502,None,924.6340502,None,,,,,,,,,sub-20,03/04/2003,2: Female,15/10/2023,001,1: right,2023_Oct_15_1218,[FINAL]_fmri_multiplication,2021.2.3,60.06420070149866
block3.xlsx,,,,,,,,,,,,,,0,2,2,2,,,,,4,0,4,0,,,,,,,,,,,,,,,,,,,,,,,,,,,,,,,,,,,,,,925.6335306969995,None,925.6335306969995,None,,,,,,,,,sub-20,03/04/2003,2: Female,15/10/2023,001,1: right,2023_Oct_15_1218,[FINAL]_fmri_multiplication,2021.2.3,60.06420070149866
block3.xlsx,,,,,,,,,,,,,,0,2,2,2,,,,,5,0,5,0,,,,,,,,,,,,,,,,,,,,,,,,,,,,,,,,,,,,,,926.6342126300005,None,926.6342126300005,None,,,,,,,,,sub-20,03/04/2003,2: Female,15/10/2023,001,1: right,2023_Oct_15_1218,[FINAL]_fmri_multiplication,2021.2.3,60.06420070149866
block3.xlsx,,,,,,,,,,,,,,0,2,2,2,,,,,6,0,6,0,,,,,,,,,,,,,,,,,,,,,,,,,,,,,,,,,,,,,,927.6363104,None,927.6363104,None,,,,,,,,,sub-20,03/04/2003,2: Female,15/10/2023,001,1: right,2023_Oct_15_1218,[FINAL]_fmri_multiplication,2021.2.3,60.06420070149866
block3.xlsx,,,,,,,,,,,,,,0,2,2,2,,,,,7,0,7,0,,,,,,,,,,,,,,,,,,,,,,,,,,,,,,,,,,,,,,928.6326634090001,None,928.6326634090001,None,,,,,,,,,sub-20,03/04/2003,2: Female,15/10/2023,001,1: right,2023_Oct_15_1218,[FINAL]_fmri_multiplication,2021.2.3,60.06420070149866
block3.xlsx,,,,,,,,,,,,,,0,2,2,2,,,,,8,0,8,0,,,,,,,,,,,,,,,,,,,,,,,,,,,,,,,,,,,,,,929.6342844,None,929.6342844,None,,,,,,,,,sub-20,03/04/2003,2: Female,15/10/2023,001,1: right,2023_Oct_15_1218,[FINAL]_fmri_multiplication,2021.2.3,60.06420070149866
block3.xlsx,,,,,,,,,,,,,,0,2,2,2,,,,,9,0,9,0,,,,,,,,,,,,,,,,,,,,,,,,,,,,,,,,,,,,,,930.6341906140005,None,930.6341906140005,None,,,,,,,,,sub-20,03/04/2003,2: Female,15/10/2023,001,1: right,2023_Oct_15_1218,[FINAL]_fmri_multiplication,2021.2.3,60.06420070149866
block3.xlsx,,,,,,,,,,,,,,0,2,2,2,,,,,10,0,10,0,,,,,,,,,,,,,,,,,,,,,,,,,,,,,,,,,,,,,,931.6325744740025,None,931.6325744740025,None,,,,,,,,,sub-20,03/04/2003,2: Female,15/10/2023,001,1: right,2023_Oct_15_1218,[FINAL]_fmri_multiplication,2021.2.3,60.06420070149866
block3.xlsx,,,,,,,,,,,,,,0,2,2,2,,,,,11,0,11,0,,,,,,,,,,,,,,,,,,,,,,,,,,,,,,,,,,,,,,932.6338821259997,None,932.6338821259997,None,,,,,,,,,sub-20,03/04/2003,2: Female,15/10/2023,001,1: right,2023_Oct_15_1218,[FINAL]_fmri_multiplication,2021.2.3,60.06420070149866
block3.xlsx,,,,,,,,,,,,,,0,2,2,2,,,,,12,0,12,0,,,,,,,,,,,,,,,,,,,,,,,,,,,,,,,,,,,,,,933.6337872599979,None,933.6337872599979,None,,,,,,,,,sub-20,03/04/2003,2: Female,15/10/2023,001,1: right,2023_Oct_15_1218,[FINAL]_fmri_multiplication,2021.2.3,60.06420070149866
block3.xlsx,,,,,,,,,,,,,,0,2,2,2,,,,,13,0,13,0,,,,,,,,,,,,,,,,,,,,,,,,,,,,,,,,,,,,,,934.6341550989964,None,934.6341550989964,None,,,,,,,,,sub-20,03/04/2003,2: Female,15/10/2023,001,1: right,2023_Oct_15_1218,[FINAL]_fmri_multiplication,2021.2.3,60.06420070149866
block3.xlsx,,,,,,,,,,,,,,0,2,2,2,,,,,14,0,14,0,,,,,,,,,,,,,,,,,,,,,,,,,,,,,,,,,,,,,,935.6327739859989,None,935.6327739859989,None,,,,,,,,,sub-20,03/04/2003,2: Female,15/10/2023,001,1: right,2023_Oct_15_1218,[FINAL]_fmri_multiplication,2021.2.3,60.06420070149866
block3.xlsx,,,,,,,,,,,,,,0,2,2,2,,,,,15,0,15,0,,,,,,,,,,,,,,,,,,,,,,,,,,,,,,,,,,,,,,936.6343093820033,None,936.6343093820033,None,,,,,,,,,sub-20,03/04/2003,2: Female,15/10/2023,001,1: right,2023_Oct_15_1218,[FINAL]_fmri_multiplication,2021.2.3,60.06420070149866
block3.xlsx,,,,,,,,,,,,,,0,2,2,2,,,,,16,0,16,0,,,,,,,,,,,,,,,,,,,,,,,,,,,,,,,,,,,,,,937.6339250340025,None,937.6339250340025,None,,,,,,,,,sub-20,03/04/2003,2: Female,15/10/2023,001,1: right,2023_Oct_15_1218,[FINAL]_fmri_multiplication,2021.2.3,60.06420070149866
block3.xlsx,,,,,,,,,,,,,,0,2,2,2,,,,,17,0,17,0,,,,,,,,,,,,,,,,,,,,,,,,,,,,,,,,,,,,,,938.6345454609982,None,938.6345454609982,None,,,,,,,,,sub-20,03/04/2003,2: Female,15/10/2023,001,1: right,2023_Oct_15_1218,[FINAL]_fmri_multiplication,2021.2.3,60.06420070149866
block3.xlsx,,,,,,,,,,,,,,0,2,2,2,,,,,18,0,18,0,,,,,,,,,,,,,,,,,,,,,,,,,,,,,,,,,,,,,,939.6346014629962,None,939.6346014629962,None,,,,,,,,,sub-20,03/04/2003,2: Female,15/10/2023,001,1: right,2023_Oct_15_1218,[FINAL]_fmri_multiplication,2021.2.3,60.06420070149866
block3.xlsx,,,,,,,,,,,,,,0,2,2,2,,,,,19,0,19,0,,,,,,,,,,,,,,,,,,,,,,,,,,,,,,,,,,,,,,940.6344924809964,None,940.6344924809964,None,,,,,,,,,sub-20,03/04/2003,2: Female,15/10/2023,001,1: right,2023_Oct_15_1218,[FINAL]_fmri_multiplication,2021.2.3,60.06420070149866
block3.xlsx,,,,,,,,,,,,,,0,2,2,2,,,,,20,0,20,0,,,,,,,,,,,,,,,,,,,,,,,,,,,,,,,,,,,,,,941.6348476830026,None,941.6348476830026,None,,,,,,,,,sub-20,03/04/2003,2: Female,15/10/2023,001,1: right,2023_Oct_15_1218,[FINAL]_fmri_multiplication,2021.2.3,60.06420070149866
block3.xlsx,,,,,,,,,,,,,,0,2,2,2,,,,,21,0,21,0,,,,,,,,,,,,,,,,,,,,,,,,,,,,,,,,,,,,,,942.6331021790029,None,942.6331021790029,None,,,,,,,,,sub-20,03/04/2003,2: Female,15/10/2023,001,1: right,2023_Oct_15_1218,[FINAL]_fmri_multiplication,2021.2.3,60.06420070149866
block3.xlsx,,,,,,,,,,,,,,0,2,2,2,,,,,22,0,22,0,,,,,,,,,,,,,,,,,,,,,,,,,,,,,,,,,,,,,,943.6341763910023,None,943.6341763910023,None,,,,,,,,,sub-20,03/04/2003,2: Female,15/10/2023,001,1: right,2023_Oct_15_1218,[FINAL]_fmri_multiplication,2021.2.3,60.06420070149866
block3.xlsx,,,,,,,,,,,,,,0,2,2,2,,,,,23,0,23,0,,,,,,,,,,,,,,,,,,,,,,,,,,,,,,,,,,,,,,944.6348168,None,944.6348168,None,,,,,,,,,sub-20,03/04/2003,2: Female,15/10/2023,001,1: right,2023_Oct_15_1218,[FINAL]_fmri_multiplication,2021.2.3,60.06420070149866
block3.xlsx,,,,,,,,,,,,,,0,2,2,2,,,,,24,0,24,0,,,,,,,,,,,,,,,,,,,,,,,,,,,,,,,,,,,,,,945.6334226969993,None,945.6334226969993,None,,,,,,,,,sub-20,03/04/2003,2: Female,15/10/2023,001,1: right,2023_Oct_15_1218,[FINAL]_fmri_multiplication,2021.2.3,60.06420070149866
block3.xlsx,,,,,,,,,,,,,,0,2,2,2,,,,,25,0,25,0,,,,,,,,,,,,,,,,,,,,,,,,,,,,,,,,,,,,,,946.6344871,None,946.6344871,None,,,,,,,,,sub-20,03/04/2003,2: Female,15/10/2023,001,1: right,2023_Oct_15_1218,[FINAL]_fmri_multiplication,2021.2.3,60.06420070149866
block3.xlsx,,,,,,,,,,,,,,0,2,2,2,,,,,26,0,26,0,,,,,,,,,,,,,,,,,,,,,,,,,,,,,,,,,,,,,,947.6333412399981,None,947.6333412399981,None,,,,,,,,,sub-20,03/04/2003,2: Female,15/10/2023,001,1: right,2023_Oct_15_1218,[FINAL]_fmri_multiplication,2021.2.3,60.06420070149866
block3.xlsx,,,,,,,,,,,,,,0,2,2,2,,,,,27,0,27,0,,,,,,,,,,,,,,,,,,,,,,,,,,,,,,,,,,,,,,948.6342716579966,None,948.6342716579966,None,,,,,,,,,sub-20,03/04/2003,2: Female,15/10/2023,001,1: right,2023_Oct_15_1218,[FINAL]_fmri_multiplication,2021.2.3,60.06420070149866
block3.xlsx,,,,,,,,,,,,,,0,2,2,2,,,,,28,0,28,0,,,,,,,,,,,,,,,,,,,,,,,,,,,,,,,,,,,,,,949.6343612659985,None,949.6343612659985,None,,,,,,,,,sub-20,03/04/2003,2: Female,15/10/2023,001,1: right,2023_Oct_15_1218,[FINAL]_fmri_multiplication,2021.2.3,60.06420070149866
block3.xlsx,,,,,,,,,,,,,,0,2,2,2,,,,,29,0,29,0,,,,,,,,,,,,,,,,,,,,,,,,,,,,,,,,,,,,,,950.6329394249988,None,950.6329394249988,None,,,,,,,,,sub-20,03/04/2003,2: Female,15/10/2023,001,1: right,2023_Oct_15_1218,[FINAL]_fmri_multiplication,2021.2.3,60.06420070149866
block3.xlsx,,,,,,,,,,,,,,0,2,2,2,,,,,,,,,,,,,,,,,,,,,,,,,,,,,,,,,,,,,,,,,,,,,,,,,,,,,,,,,,sub-20,03/04/2003,2: Female,15/10/2023,001,1: right,2023_Oct_15_1218,[FINAL]_fmri_multiplication,2021.2.3,60.06420070149866
block4.xlsx,10,7.5,8.4,5 x 6,36,14,5 x 6 = 36,large-sized_low-interference,large-sized,low-interference,6,IncorrectRESP,d,0,3,3,3,0,0,0,0,,,,,,,,,,,,,951.6355102000016,None,961.6557801610033,None,962.1336144840025,None,964.1339221070011,None,964.8838705,None,965.1336795690004,None,965.1336795690004,None,a,0,0.6685662050003884,965.1336795690004,None,965.8340803329993,None,965.8340803329993,None,d,0.20013382400065893,965.8340803329993,None,966.0668064839992,None,,,,,,,,,,,,,sub-20,03/04/2003,2: Female,15/10/2023,001,1: right,2023_Oct_15_1218,[FINAL]_fmri_multiplication,2021.2.3,60.06420070149866
block4.xlsx,25.9,7.5,2.6,6 x 2,12,6,6 x 2 = 12,small-sized_low-interference,small-sized,low-interference,3,CorrectRESP,a,0,3,3,3,0,1,1,1,,,,,,,,,,,,,,,974.4671466099971,None,974.9667484439997,None,976.9668997219997,None,977.7173257219983,None,977.9673687999966,None,977.9673687999966,None,d,0,0.6588213380018715,977.9673687999966,None,978.6503210579976,None,978.6503210579976,None,d,0.22395944299933035,978.6503210579976,None,978.9003572810034,None,,,,,,,,,,,,,sub-20,03/04/2003,2: Female,15/10/2023,001,1: right,2023_Oct_15_1218,[FINAL]_fmri_multiplication,2021.2.3,60.06420070149866
block4.xlsx,36,7.5,3.8,8 x 4,32,24,8 x 4 = 32,large-sized_high-interference,large-sized,high-interference,25,CorrectRESP,a,0,3,3,3,0,2,2,2,,,,,,,,,,,,,,,981.5010736050026,None,982.0008626350027,None,984.0010285449971,None,984.7509804450019,None,985.0005843909967,None,985.0005843909967,None,d,0,0.6577144660041085,985.0005843909967,None,985.6836156880017,None,985.6836156880017,None,d,0.19070424000528874,985.6836156880017,None,985.9008374969999,None,,,,,,,,,,,,,sub-20,03/04/2003,2: Female,15/10/2023,001,1: right,2023_Oct_15_1218,[FINAL]_fmri_multiplication,2021.2.3,60.06420070149866
block4.xlsx,47.3,7.5,3.8,9 x 5,40,15,9 x 5 = 40,large-sized_low-interference,large-sized,low-interference,6,IncorrectRESP,d,0,3,3,3,0,3,3,3,,,,,,,,,,,,,,,989.7007622,None,990.2004222179967,None,992.2012228110034,None,992.9506639160027,None,993.2015004310015,None,993.2015004310015,None,a,0,0.7207807230006438,993.2015004310015,None,993.9505014399983,None,993.9505014399983,None,d,0.6117094450019067,993.9505014399983,None,994.5825098959976,None,,,,,,,,,,,,,sub-20,03/04/2003,2: Female,15/10/2023,001,1: right,2023_Oct_15_1218,[FINAL]_fmri_multiplication,2021.2.3,60.06420070149866
block4.xlsx,58.6,7.5,4.4,6 x 3,18,7,6 x 3 = 18,small-sized_high-interference,small-sized,high-interference,8,CorrectRESP,a,0,3,3,3,0,4,4,4,,,,,,,,,,,,,,,998.3838715559978,None,998.8831187219985,None,1000.8839179900024,None,1001.6339289280004,None,1001.8838222400009,None,1001.8838222400009,None,d,0,0.8544298420019913,1001.8838222400009,None,1002.7670108899983,None,1002.7670108899983,None,d,0.21126232000096934,1002.7670108899983,None,1003.0001350279999,None,,,,,,,,,,,,,sub-20,03/04/2003,2: Female,15/10/2023,001,1: right,2023_Oct_15_1218,[FINAL]_fmri_multiplication,2021.2.3,60.06420070149866
block4.xlsx,70.5,7.5,2.6,4 x 9,32,20,4 x 9 = 32,large-sized_high-interference,large-sized,high-interference,9,IncorrectRESP,d,0,3,3,3,0,5,5,5,,,,,,,,,,,,,,,1007.400046884999,None,1007.9003138089975,None,1009.9003027080034,None,1010.6505201789987,None,1010.9000045330031,None,1010.9000045330031,None,d,1,0.7181944339972688,1010.9000045330031,None,1011.6501764119967,None,1011.6501764119967,None,a,0.7200199940052698,1011.6501764119967,None,1012.400333302001,None,,,,,,,,,,,,,sub-20,03/04/2003,2: Female,15/10/2023,001,1: right,2023_Oct_15_1218,[FINAL]_fmri_multiplication,2021.2.3,60.06420070149866
block4.xlsx,80.6,7.5,9.4,3 x 4,15,9,3 x 4 = 15,small-sized_high-interference,small-sized,high-interference,10,IncorrectRESP,d,0,3,3,3,0,6,6,6,,,,,,,,,,,,,,,1015.0008181439989,None,1015.5005300089979,None,1017.5008936820013,None,1018.2506695659977,None,1018.5007520739964,None,1018.5007520739964,None,d,1,1.277545809003641,1018.5007520739964,None,1019.8003726759998,None,1019.8003726759998,None,a,1.3298458399949595,1019.8003726759998,None,1021.1505244340005,None,,,,,,,,,,,,,sub-20,03/04/2003,2: Female,15/10/2023,001,1: right,2023_Oct_15_1218,[FINAL]_fmri_multiplication,2021.2.3,60.06420070149866
block4.xlsx,97.5,7.5,6,6 x 6,36,13,6 x 6 = 36,large-sized_low-interference,large-sized,low-interference,4,CorrectRESP,a,0,3,3,3,0,7,7,7,,,,,,,,,,,,,,,1030.550522231002,None,1031.0505441549976,None,1033.0504801729985,None,1033.8006254950014,None,1034.050317745001,None,1034.050317745001,None,d,0,0.6799197049986105,1034.050317745001,None,1034.7486014919996,None,1034.7486014919996,None,d,0.3176780220019282,1034.7486014919996,None,1035.0833788980017,None,,,,,,,,,,,,,sub-20,03/04/2003,2: Female,15/10/2023,001,1: right,2023_Oct_15_1218,[FINAL]_fmri_multiplication,2021.2.3,60.06420070149866
block4.xlsx,111,7.5,5.8,7 x 6,42,23,7 x 6 = 42,large-sized_high-interference,large-sized,high-interference,22,CorrectRESP,a,0,3,3,3,0,8,8,8,,,,,,,,,,,,,,,1041.083183214003,None,1041.583640996003,None,1043.5834754489988,None,1044.3338993759971,None,1044.5839303690009,None,1044.5839303690009,None,d,0,0.8664680750007392,1044.5839303690009,None,1045.4670510189972,None,1045.4670510189972,None,d,0.24726477800140856,1045.4670510189972,None,1045.7334455090022,None,,,,,,,,,,,,,sub-20,03/04/2003,2: Female,15/10/2023,001,1: right,2023_Oct_15_1218,[FINAL]_fmri_multiplication,2021.2.3,60.06420070149866
block4.xlsx,124.3,7.5,3.6,6 x 4,28,10,6 x 4 = 28,small-sized_high-interference,small-sized,high-interference,12,IncorrectRESP,d,0,3,3,3,0,9,9,9,,,,,,,,,,,,,,,1051.5310360899966,None,1052.0253592000008,None,1054.0344143330003,None,1054.7843006230032,None,1055.0342634690023,None,1055.0342634690023,None,a,0,0.7279777099975036,1055.0342634690023,None,1055.7838702750014,None,1055.7838702750014,None,d,0.5623789449964534,1055.7838702750014,None,1056.3671646529983,None,,,,,,,,,,,,,sub-20,03/04/2003,2: Female,15/10/2023,001,1: right,2023_Oct_15_1218,[FINAL]_fmri_multiplication,2021.2.3,60.06420070149866
block4.xlsx,135.4,7.5,9.3,5 x 5,30,3,5 x 5 = 30,small-sized_low-interference,small-sized,low-interference,3,IncorrectRESP,d,0,3,3,3,0,10,10,10,,,,,,,,,,,,,,,1059.967692678998,None,1060.4672498979999,None,1062.467169458003,None,1063.2171489620014,None,1063.4665950799972,None,1063.4665950799972,None,a,0,0.7596357970032841,1063.4665950799972,None,1064.2502754320012,None,1064.2502754320012,None,d,0.3920070570020471,1064.2502754320012,None,1064.6672014630021,None,,,,,,,,,,,,,sub-20,03/04/2003,2: Female,15/10/2023,001,1: right,2023_Oct_15_1218,[FINAL]_fmri_multiplication,2021.2.3,60.06420070149866
block4.xlsx,152.2,7.5,9.8,7 x 3,21,11,7 x 3 = 21,small-sized_high-interference,small-sized,high-interference,13,CorrectRESP,a,0,3,3,3,0,11,11,11,,,,,,,,,,,,,,,1073.9667521189986,None,1074.4667862979986,None,1076.4670199629982,None,1077.2173078859996,None,1077.483596072998,None,1077.483596072998,None,d,0,0.9426152710002498,1077.483596072998,None,1078.4500366580032,None,1078.4500366580032,None,d,0.2401712499995483,1078.4500366580032,None,1078.7164839010002,None,,,,,,,,,,,,,sub-20,03/04/2003,2: Female,15/10/2023,001,1: right,2023_Oct_15_1218,[FINAL]_fmri_multiplication,2021.2.3,60.06420070149866
block4.xlsx,169.5,7.5,12.8,9 x 9,72,16,9 x 9 = 72,large-sized_low-interference,large-sized,low-interference,6,IncorrectRESP,d,0,3,3,3,0,12,12,12,,,,,,,,,,,,,,,1088.5306264500032,None,1089.033923,None,1091.0341738720017,None,1091.7842726989984,None,1092.0341112649985,None,1092.0341112649985,None,a,0,0.8241912000012235,1092.0341112649985,None,1092.8835321009974,None,1092.8835321009974,None,d,0.4227760499998112,1092.8835321009974,None,1093.3342709589997,None,,,,,,,,,,,,,sub-20,03/04/2003,2: Female,15/10/2023,001,1: right,2023_Oct_15_1218,[FINAL]_fmri_multiplication,2021.2.3,60.06420070149866
block4.xlsx,189.8,7.5,8.9,4 x 4,20,4,4 x 4 = 20,small-sized_low-interference,small-sized,low-interference,5,IncorrectRESP,d,0,3,3,3,0,13,13,13,,,,,,,,,,,,,,,1106.1338520779973,None,1106.633712775998,None,1108.6339083380008,None,1109.3837119149975,None,1109.6326171830005,None,1109.6326171830005,None,a,0,0.713610332,1109.6326171830005,None,1110.3667464850005,None,1110.3667464850005,None,d,0.2275422270031413,1110.3667464850005,None,1110.6167983979976,None,,,,,,,,,,,,,sub-20,03/04/2003,2: Female,15/10/2023,001,1: right,2023_Oct_15_1218,[FINAL]_fmri_multiplication,2021.2.3,60.06420070149866
block4.xlsx,206.2,7.5,2.4,5 x 8,45,21,5 x 8 = 45,large-sized_high-interference,large-sized,high-interference,9,IncorrectRESP,d,0,3,3,3,0,14,14,14,,,,,,,,,,,,,,,1119.5172697989983,None,1120.0173306340002,None,1122.017857548999,None,1122.7677085960022,None,1123.0179597590031,None,1123.0179597590031,None,a,0,0.8243398039994645,1123.0179597590031,None,1123.8670161710033,None,1123.8670161710033,None,d,0.3912909999999101,1123.8670161710033,None,1124.2835932789967,None,,,,,,,,,,,,,sub-20,03/04/2003,2: Female,15/10/2023,001,1: right,2023_Oct_15_1218,[FINAL]_fmri_multiplication,2021.2.3,60.06420070149866
block4.xlsx,216.1,7.5,14,8 x 2,16,5,8 x 2 = 16,small-sized_low-interference,small-sized,low-interference,7,CorrectRESP,a,0,3,3,3,0,15,15,15,,,,,,,,,,,,,,,1126.684312,None,1127.1841784459975,None,1129.1842570980007,None,1129.934056402999,None,1130.1838378510001,None,1130.1838378510001,None,d,0,0.67445619,1130.1838378510001,None,1130.883339398999,None,1130.883339398999,None,d,0.31886172300437465,1130.883339398999,None,1131.2337556769999,None,,,,,,,,,,,,,sub-20,03/04/2003,2: Female,15/10/2023,001,1: right,2023_Oct_15_1218,[FINAL]_fmri_multiplication,2021.2.3,60.06420070149866
block4.xlsx,237.6,7.5,5.2,7 x 5,35,17,7 x 5 = 35,large-sized_low-interference,large-sized,low-interference,7,CorrectRESP,a,0,3,3,3,0,16,16,16,,,,,,,,,,,,,,,1145.2333520140019,None,1145.733678135999,None,1147.733783,None,1148.4835836810016,None,1148.7345498700015,None,1148.7345498700015,None,d,0,0.6676453330001095,1148.7345498700015,None,1149.4322706590028,None,1149.4322706590028,None,d,0.2899824850028381,1149.4322706590028,None,1149.750079395999,None,,,,,,,,,,,,,sub-20,03/04/2003,2: Female,15/10/2023,001,1: right,2023_Oct_15_1218,[FINAL]_fmri_multiplication,2021.2.3,60.06420070149866
block4.xlsx,250.3,7.5,9.6,8 x 7,63,22,8 x 7 = 63,large-sized_high-interference,large-sized,high-interference,9,IncorrectRESP,d,0,3,3,3,0,17,17,17,,,,,,,,,,,,,,,1154.950628022998,None,1155.4505911029992,None,1157.4511053509996,None,1158.2011120949974,None,1158.4501198450016,None,1158.4501198450016,None,a,0,0.784044164,1158.4501198450016,None,1159.250889531002,None,1159.250889531002,None,d,0.35133441599464277,1159.250889531002,None,1159.634005371001,None,,,,,,,,,,,,,sub-20,03/04/2003,2: Female,15/10/2023,001,1: right,2023_Oct_15_1218,[FINAL]_fmri_multiplication,2021.2.3,60.06420070149866
block4.xlsx,267.4,7.5,2.6,2 x 9,16,2,2 x 9 = 16,small-sized_low-interference,small-sized,low-interference,7,IncorrectRESP,d,0,3,3,3,0,18,18,18,,,,,,,,,,,,,,,1169.2339181409989,None,1169.733764,None,1171.7339764839999,None,1172.4838781200015,None,1172.733574470003,None,1172.733574470003,None,a,0,0.8446734079989255,1172.733574470003,None,1173.600116,None,1173.600116,None,d,0.4421827199985273,1173.600116,None,1174.0674833520025,None,,,,,,,,,,,,,sub-20,03/04/2003,2: Female,15/10/2023,001,1: right,2023_Oct_15_1218,[FINAL]_fmri_multiplication,2021.2.3,60.06420070149866
block4.xlsx,277.5,7.5,2.3,9 x 3,27,19,9 x 3 = 27,large-sized_high-interference,large-sized,high-interference,9,CorrectRESP,a,0,3,3,3,0,19,19,19,,,,,,,,,,,,,,,1176.6668006710024,None,1177.1657914090028,None,1179.1672252510034,None,1179.9171998969978,None,1180.165919990999,None,1180.165919990999,None,a,1,1.5402905579976505,1180.165919990999,None,1181.733705,None,1181.733705,None,a,0.6764883069990901,1181.733705,None,1182.4334399209984,None,,,,,,,,,,,,,sub-20,03/04/2003,2: Female,15/10/2023,001,1: right,2023_Oct_15_1218,[FINAL]_fmri_multiplication,2021.2.3,60.06420070149866
block4.xlsx,287.3,7.5,3.1,4 x 5,16,8,4 x 5 = 16,small-sized_high-interference,small-sized,high-interference,8,IncorrectRESP,d,0,3,3,3,0,20,20,20,,,,,,,,,,,,,,,1184.7334364929993,None,1185.2333579229962,None,1187.2339089699963,None,1187.9840261200006,None,1188.2339947029977,None,1188.2339947029977,None,a,0,1.0883044920046814,1188.2339947029977,None,1189.350382327997,None,1189.350382327997,None,d,0.5239192519948119,1189.350382327997,None,1189.9004352010015,None,,,,,,,,,,,,,sub-20,03/04/2003,2: Female,15/10/2023,001,1: right,2023_Oct_15_1218,[FINAL]_fmri_multiplication,2021.2.3,60.06420070149866
block4.xlsx,297.9,7.5,2.7,7 x 7,49,18,7 x 7 = 49,large-sized_low-interference,large-sized,low-interference,7,CorrectRESP,a,0,3,3,3,0,21,21,21,,,,,,,,,,,,,,,1192.9974836699985,None,1193.4922800950008,None,1195.5009225370013,None,1196.2504353300028,None,1196.500722261997,None,1196.500722261997,None,d,0,0.7735796799970558,1196.500722261997,None,1197.300368791999,None,1197.300368791999,None,d,0.22992054399946937,1197.300368791999,None,1197.550371217003,None,,,,,,,,,,,,,sub-20,03/04/2003,2: Female,15/10/2023,001,1: right,2023_Oct_15_1218,[FINAL]_fmri_multiplication,2021.2.3,60.06420070149866
block4.xlsx,308.1,7.5,4.8,7 x 2,14,1,7 x 2 = 14,small-sized_low-interference,small-sized,low-interference,4,CorrectRESP,a,0,3,3,3,0,22,22,22,,,,,,,,,,,,,,,1200.2508050249962,None,1200.7502534899977,None,1202.7511618369972,None,1203.5005518699982,None,1203.7498812299964,None,1203.7498812299964,None,d,0,0.9403665870049736,1203.7498812299964,None,1204.716624102999,None,1204.716624102999,None,d,0.22957384299661499,1204.716624102999,None,1204.966967250999,None,,,,,,,,,,,,,sub-20,03/04/2003,2: Female,15/10/2023,001,1: right,2023_Oct_15_1218,[FINAL]_fmri_multiplication,2021.2.3,60.06420070149866
block4.xlsx,320.4,7.5,7.1,3 x 8,24,12,3 x 8 = 24,small-sized_high-interference,small-sized,high-interference,13,CorrectRESP,a,0,3,3,3,0,23,23,23,,,,,,,,,,,,,,,1209.7672156280023,None,1210.2670571600029,None,1212.2671986339992,None,1213.0173912239989,None,1213.2670304139974,None,1213.2670304139974,None,a,1,1.1351880860020174,1213.2670304139974,None,1214.4338511000024,None,1214.4338511000024,None,d,0.608443557,1214.4338511000024,None,1215.066816808001,None,,,,,,,,,,,,,sub-20,03/04/2003,2: Female,15/10/2023,001,1: right,2023_Oct_15_1218,[FINAL]_fmri_multiplication,2021.2.3,60.06420070149866
block4.xlsx,,,,,,,,,,,,,,0,3,3,3,,,,,0,0,0,0,,,,,,,,,,,,,,,,,,,,,,,,,,,,,,,,,,,,,,1222.1659573849975,None,1222.1659573849975,None,,,,,,,,,sub-20,03/04/2003,2: Female,15/10/2023,001,1: right,2023_Oct_15_1218,[FINAL]_fmri_multiplication,2021.2.3,60.06420070149866
block4.xlsx,,,,,,,,,,,,,,0,3,3,3,,,,,1,0,1,0,,,,,,,,,,,,,,,,,,,,,,,,,,,,,,,,,,,,,,1223.167885545001,1223.167885545001,1223.167885545001,1223.167885545001,,,,,,,,,sub-20,03/04/2003,2: Female,15/10/2023,001,1: right,2023_Oct_15_1218,[FINAL]_fmri_multiplication,2021.2.3,60.06420070149866
block4.xlsx,,,,,,,,,,,,,,0,3,3,3,,,,,2,0,2,0,,,,,,,,,,,,,,,,,,,,,,,,,,,,,,,,,,,,,,1224.1662393139995,1224.1662393139995,1224.1662393139995,1224.1662393139995,,,,,,,,,sub-20,03/04/2003,2: Female,15/10/2023,001,1: right,2023_Oct_15_1218,[FINAL]_fmri_multiplication,2021.2.3,60.06420070149866
block4.xlsx,,,,,,,,,,,,,,0,3,3,3,,,,,3,0,3,0,,,,,,,,,,,,,,,,,,,,,,,,,,,,,,,,,,,,,,1225.1676067290027,1225.1676067290027,1225.1676067290027,1225.1676067290027,,,,,,,,,sub-20,03/04/2003,2: Female,15/10/2023,001,1: right,2023_Oct_15_1218,[FINAL]_fmri_multiplication,2021.2.3,60.06420070149866
block4.xlsx,,,,,,,,,,,,,,0,3,3,3,,,,,4,0,4,0,,,,,,,,,,,,,,,,,,,,,,,,,,,,,,,,,,,,,,1226.168273641997,1226.168273641997,1226.168273641997,1226.168273641997,,,,,,,,,sub-20,03/04/2003,2: Female,15/10/2023,001,1: right,2023_Oct_15_1218,[FINAL]_fmri_multiplication,2021.2.3,60.06420070149866
block4.xlsx,,,,,,,,,,,,,,0,3,3,3,,,,,5,0,5,0,,,,,,,,,,,,,,,,,,,,,,,,,,,,,,,,,,,,,,1227.1683134370032,None,1227.1683134370032,None,,,,,,,,,sub-20,03/04/2003,2: Female,15/10/2023,001,1: right,2023_Oct_15_1218,[FINAL]_fmri_multiplication,2021.2.3,60.06420070149866
block4.xlsx,,,,,,,,,,,,,,0,3,3,3,,,,,6,0,6,0,,,,,,,,,,,,,,,,,,,,,,,,,,,,,,,,,,,,,,1228.1686300790025,None,1228.1686300790025,None,,,,,,,,,sub-20,03/04/2003,2: Female,15/10/2023,001,1: right,2023_Oct_15_1218,[FINAL]_fmri_multiplication,2021.2.3,60.06420070149866
block4.xlsx,,,,,,,,,,,,,,0,3,3,3,,,,,7,0,7,0,,,,,,,,,,,,,,,,,,,,,,,,,,,,,,,,,,,,,,1229.1849858860005,None,1229.1849858860005,None,,,,,,,,,sub-20,03/04/2003,2: Female,15/10/2023,001,1: right,2023_Oct_15_1218,[FINAL]_fmri_multiplication,2021.2.3,60.06420070149866
block4.xlsx,,,,,,,,,,,,,,0,3,3,3,,,,,8,0,8,0,,,,,,,,,,,,,,,,,,,,,,,,,,,,,,,,,,,,,,1230.1682154419977,None,1230.1682154419977,None,,,,,,,,,sub-20,03/04/2003,2: Female,15/10/2023,001,1: right,2023_Oct_15_1218,[FINAL]_fmri_multiplication,2021.2.3,60.06420070149866
block4.xlsx,,,,,,,,,,,,,,0,3,3,3,,,,,9,0,9,0,,,,,,,,,,,,,,,,,,,,,,,,,,,,,,,,,,,,,,1231.1845167959982,None,1231.1845167959982,None,,,,,,,,,sub-20,03/04/2003,2: Female,15/10/2023,001,1: right,2023_Oct_15_1218,[FINAL]_fmri_multiplication,2021.2.3,60.06420070149866
block4.xlsx,,,,,,,,,,,,,,0,3,3,3,,,,,10,0,10,0,,,,,,,,,,,,,,,,,,,,,,,,,,,,,,,,,,,,,,1232.168442508002,None,1232.168442508002,None,,,,,,,,,sub-20,03/04/2003,2: Female,15/10/2023,001,1: right,2023_Oct_15_1218,[FINAL]_fmri_multiplication,2021.2.3,60.06420070149866
block4.xlsx,,,,,,,,,,,,,,0,3,3,3,,,,,11,0,11,0,,,,,,,,,,,,,,,,,,,,,,,,,,,,,,,,,,,,,,1233.1700337489965,None,1233.1700337489965,None,,,,,,,,,sub-20,03/04/2003,2: Female,15/10/2023,001,1: right,2023_Oct_15_1218,[FINAL]_fmri_multiplication,2021.2.3,60.06420070149866
block4.xlsx,,,,,,,,,,,,,,0,3,3,3,,,,,12,0,12,0,,,,,,,,,,,,,,,,,,,,,,,,,,,,,,,,,,,,,,1234.1685747419979,None,1234.1685747419979,None,,,,,,,,,sub-20,03/04/2003,2: Female,15/10/2023,001,1: right,2023_Oct_15_1218,[FINAL]_fmri_multiplication,2021.2.3,60.06420070149866
block4.xlsx,,,,,,,,,,,,,,0,3,3,3,,,,,13,0,13,0,,,,,,,,,,,,,,,,,,,,,,,,,,,,,,,,,,,,,,1235.167498914001,None,1235.167498914001,None,,,,,,,,,sub-20,03/04/2003,2: Female,15/10/2023,001,1: right,2023_Oct_15_1218,[FINAL]_fmri_multiplication,2021.2.3,60.06420070149866
block4.xlsx,,,,,,,,,,,,,,0,3,3,3,,,,,14,0,14,0,,,,,,,,,,,,,,,,,,,,,,,,,,,,,,,,,,,,,,1236.1668137129964,1236.1668137129964,1236.1668137129964,1236.1668137129964,,,,,,,,,sub-20,03/04/2003,2: Female,15/10/2023,001,1: right,2023_Oct_15_1218,[FINAL]_fmri_multiplication,2021.2.3,60.06420070149866
block4.xlsx,,,,,,,,,,,,,,0,3,3,3,,,,,15,0,15,0,,,,,,,,,,,,,,,,,,,,,,,,,,,,,,,,,,,,,,1237.1672978790011,1237.1672978790011,1237.1672978790011,1237.1672978790011,,,,,,,,,sub-20,03/04/2003,2: Female,15/10/2023,001,1: right,2023_Oct_15_1218,[FINAL]_fmri_multiplication,2021.2.3,60.06420070149866
block4.xlsx,,,,,,,,,,,,,,0,3,3,3,,,,,16,0,16,0,,,,,,,,,,,,,,,,,,,,,,,,,,,,,,,,,,,,,,1238.1670209549993,1238.1670209549993,1238.1670209549993,1238.1670209549993,,,,,,,,,sub-20,03/04/2003,2: Female,15/10/2023,001,1: right,2023_Oct_15_1218,[FINAL]_fmri_multiplication,2021.2.3,60.06420070149866
block4.xlsx,,,,,,,,,,,,,,0,3,3,3,,,,,17,0,17,0,,,,,,,,,,,,,,,,,,,,,,,,,,,,,,,,,,,,,,1239.1670141259965,1239.1670141259965,1239.1670141259965,1239.1670141259965,,,,,,,,,sub-20,03/04/2003,2: Female,15/10/2023,001,1: right,2023_Oct_15_1218,[FINAL]_fmri_multiplication,2021.2.3,60.06420070149866
block4.xlsx,,,,,,,,,,,,,,0,3,3,3,,,,,18,0,18,0,,,,,,,,,,,,,,,,,,,,,,,,,,,,,,,,,,,,,,1240.1672321680016,1240.1672321680016,1240.1672321680016,1240.1672321680016,,,,,,,,,sub-20,03/04/2003,2: Female,15/10/2023,001,1: right,2023_Oct_15_1218,[FINAL]_fmri_multiplication,2021.2.3,60.06420070149866
block4.xlsx,,,,,,,,,,,,,,0,3,3,3,,,,,19,0,19,0,,,,,,,,,,,,,,,,,,,,,,,,,,,,,,,,,,,,,,1241.1659293589983,1241.1659293589983,1241.1659293589983,1241.1659293589983,,,,,,,,,sub-20,03/04/2003,2: Female,15/10/2023,001,1: right,2023_Oct_15_1218,[FINAL]_fmri_multiplication,2021.2.3,60.06420070149866
block4.xlsx,,,,,,,,,,,,,,0,3,3,3,,,,,20,0,20,0,,,,,,,,,,,,,,,,,,,,,,,,,,,,,,,,,,,,,,1242.168164718998,1242.168164718998,1242.168164718998,1242.168164718998,,,,,,,,,sub-20,03/04/2003,2: Female,15/10/2023,001,1: right,2023_Oct_15_1218,[FINAL]_fmri_multiplication,2021.2.3,60.06420070149866
block4.xlsx,,,,,,,,,,,,,,0,3,3,3,,,,,21,0,21,0,,,,,,,,,,,,,,,,,,,,,,,,,,,,,,,,,,,,,,1243.1685090269966,1243.1685090269966,1243.1685090269966,1243.1685090269966,,,,,,,,,sub-20,03/04/2003,2: Female,15/10/2023,001,1: right,2023_Oct_15_1218,[FINAL]_fmri_multiplication,2021.2.3,60.06420070149866
block4.xlsx,,,,,,,,,,,,,,0,3,3,3,,,,,22,0,22,0,,,,,,,,,,,,,,,,,,,,,,,,,,,,,,,,,,,,,,1244.1838722749962,None,1244.1838722749962,None,,,,,,,,,sub-20,03/04/2003,2: Female,15/10/2023,001,1: right,2023_Oct_15_1218,[FINAL]_fmri_multiplication,2021.2.3,60.06420070149866
block4.xlsx,,,,,,,,,,,,,,0,3,3,3,,,,,23,0,23,0,,,,,,,,,,,,,,,,,,,,,,,,,,,,,,,,,,,,,,1245.1839896449965,None,1245.1839896449965,None,,,,,,,,,sub-20,03/04/2003,2: Female,15/10/2023,001,1: right,2023_Oct_15_1218,[FINAL]_fmri_multiplication,2021.2.3,60.06420070149866
block4.xlsx,,,,,,,,,,,,,,0,3,3,3,,,,,24,0,24,0,,,,,,,,,,,,,,,,,,,,,,,,,,,,,,,,,,,,,,1246.1837620689985,None,1246.1837620689985,None,,,,,,,,,sub-20,03/04/2003,2: Female,15/10/2023,001,1: right,2023_Oct_15_1218,[FINAL]_fmri_multiplication,2021.2.3,60.06420070149866
block4.xlsx,,,,,,,,,,,,,,0,3,3,3,,,,,25,0,25,0,,,,,,,,,,,,,,,,,,,,,,,,,,,,,,,,,,,,,,1247.1849503470003,None,1247.1849503470003,None,,,,,,,,,sub-20,03/04/2003,2: Female,15/10/2023,001,1: right,2023_Oct_15_1218,[FINAL]_fmri_multiplication,2021.2.3,60.06420070149866
block4.xlsx,,,,,,,,,,,,,,0,3,3,3,,,,,26,0,26,0,,,,,,,,,,,,,,,,,,,,,,,,,,,,,,,,,,,,,,1248.1842492020005,None,1248.1842492020005,None,,,,,,,,,sub-20,03/04/2003,2: Female,15/10/2023,001,1: right,2023_Oct_15_1218,[FINAL]_fmri_multiplication,2021.2.3,60.06420070149866
block4.xlsx,,,,,,,,,,,,,,0,3,3,3,,,,,27,0,27,0,,,,,,,,,,,,,,,,,,,,,,,,,,,,,,,,,,,,,,1249.1838092570033,None,1249.1838092570033,None,,,,,,,,,sub-20,03/04/2003,2: Female,15/10/2023,001,1: right,2023_Oct_15_1218,[FINAL]_fmri_multiplication,2021.2.3,60.06420070149866
block4.xlsx,,,,,,,,,,,,,,0,3,3,3,,,,,28,0,28,0,,,,,,,,,,,,,,,,,,,,,,,,,,,,,,,,,,,,,,1250.1838821850033,None,1250.1838821850033,None,,,,,,,,,sub-20,03/04/2003,2: Female,15/10/2023,001,1: right,2023_Oct_15_1218,[FINAL]_fmri_multiplication,2021.2.3,60.06420070149866
block4.xlsx,,,,,,,,,,,,,,0,3,3,3,,,,,29,0,29,0,,,,,,,,,,,,,,,,,,,,,,,,,,,,,,,,,,,,,,1251.1838941500027,None,1251.1838941500027,None,,,,,,,,,sub-20,03/04/2003,2: Female,15/10/2023,001,1: right,2023_Oct_15_1218,[FINAL]_fmri_multiplication,2021.2.3,60.06420070149866
block4.xlsx,,,,,,,,,,,,,,0,3,3,3,,,,,,,,,,,,,,,,,,,,,,,,,,,,,,,,,,,,,,,,,,,,,,,,,,,,,,,,,,sub-20,03/04/2003,2: Female,15/10/2023,001,1: right,2023_Oct_15_1218,[FINAL]_fmri_multiplication,2021.2.3,60.06420070149866
,,,,,,,,,,,,,,,,,,,,,,,,,,,,,,,,,,,,,,,,,,,,,,,,,,,,,,,,,,,,,,,,,,,1252.183464761998,1254.1825085859964,1254.1660748720024,None,y,419.9104594080054,1254.1660748720024,None,sub-20,03/04/2003,2: Female,15/10/2023,001,1: right,2023_Oct_15_1218,[FINAL]_fmri_multiplication,2021.2.3,60.06420070149866