blocks_file,start,dur,rest,mult_problemB,mult_options,stim_trial,mult_stim,type,ProblemSize,InterferenceLH,InterferenceLevel,mult_type,corrRESP,blocks_set.thisRepN,blocks_set.thisTrialN,blocks_set.thisN,blocks_set.thisIndex,TRIALS.thisRepN,TRIALS.thisTrialN,TRIALS.thisN,TRIALS.thisIndex,timer_loop.thisRepN,timer_loop.thisTrialN,timer_loop.thisN,timer_loop.thisIndex,WAIT_TEXT.started,WAIT_TEXT.stopped,scan_start_trigger.keys,scan_start_trigger.rt,scan_start_trigger.started,scan_start_trigger.stopped,MAIN_SCREEN.started,MAIN_SCREEN.stopped,Block_Text.started,Block_Text.stopped,asterisk500ms.started,asterisk500ms.stopped,mult_question_text.started,mult_question_text.stopped,equal_text.started,equal_text.stopped,blank250_text.started,blank250_text.stopped,Mult_OPTION.started,Mult_OPTION.stopped,Mult_YN.started,Mult_YN.stopped,Mult_Resp.keys,Mult_Resp.corr,Mult_Resp.rt,Mult_Resp.started,Mult_Resp.stopped,Strategy_Q.started,Strategy_Q.stopped,Strategy_Option.started,Strategy_Option.stopped,Strategy_RESP.keys,Strategy_RESP.rt,Strategy_RESP.started,Strategy_RESP.stopped,jitters.started,jitters.stopped,resting_text.started,resting_text.stopped,countdown_timer.started,countdown_timer.stopped,participant,Date of birth (DD/MM/YEAR),gender,Testing Date (DD/MM/YEAR),session,handedness,date,expName,psychopyVersion,frameRate
,,,,,,,,,,,,,,,,,,,,,,,,,,50.08823539399964,None,s,18.776877033000346,50.08823539399964,None,,,,,,,,,,,,,,,,,,,,,,,,,,,,,,,,,,,,sub-11,06/12/2002,2: Female,15/07/2023,002,1: right,2023_Jul_15_1401,[FINAL]_fmri_multiplication,2021.2.3,59.94412955276247
block5.xlsx,10,7.5,4.6,3 x 6,18,7,6 x 3 = 18,small-sized_high-interference,small-sized,high-interference,8,CorrectRESP,a,0,0,0,0,0,0,0,0,,,,,,,,,,,68.89772351099964,None,73.93478274899826,None,83.93525799399868,None,84.41910039999857,None,86.41243718999976,None,87.16212595599791,None,87.41320276,None,87.41320276,None,d,0,0.4430920900013007,87.41320276,None,87.87861454299855,None,87.87861454299855,None,d,0.22558165800001007,87.87861454299855,None,88.12838065599863,None,,,,,sub-11,06/12/2002,2: Female,15/07/2023,002,1: right,2023_Jul_15_1401,[FINAL]_fmri_multiplication,2021.2.3,59.94412955276247
block5.xlsx,22.1,7.5,7,9 x 9,72,16,9 x 9 = 72,large-sized_low-interference,large-sized,low-interference,6,IncorrectRESP,d,0,0,0,0,0,1,1,1,,,,,,,,,,,,,,,92.72834923299888,None,93.22974418499871,None,95.22882308299813,None,95.97863898799915,None,96.23132111299856,None,96.23132111299856,None,a,0,0.897049554,96.23132111299856,None,97.14554998300082,None,97.14554998300082,None,a,0.5107506860003923,97.14554998300082,None,97.67842491699776,None,,,,,sub-11,06/12/2002,2: Female,15/07/2023,002,1: right,2023_Jul_15_1401,[FINAL]_fmri_multiplication,2021.2.3,59.94412955276247
block5.xlsx,36.6,7.5,4.4,2 x 6,12,6,6 x 2 = 12,small-sized_low-interference,small-sized,low-interference,3,CorrectRESP,a,0,0,0,0,0,2,2,2,,,,,,,,,,,,,,,104.67883515399808,None,105.17945775499902,None,107.17924182199931,None,107.9291626339982,None,108.17937419599912,None,108.17937419599912,None,d,0,0.3569590219995007,108.17937419599912,None,108.56170722599927,None,108.56170722599927,None,d,0.1986405809984717,108.56170722599927,None,108.77887573399858,None,,,,,sub-11,06/12/2002,2: Female,15/07/2023,002,1: right,2023_Jul_15_1401,[FINAL]_fmri_multiplication,2021.2.3,59.94412955276247
block5.xlsx,48.5,7.5,9.6,8 x 3,24,12,3 x 8 = 24,small-sized_high-interference,small-sized,high-interference,13,CorrectRESP,a,0,0,0,0,0,3,3,3,,,,,,,,,,,,,,,113.17913743000099,None,113.68184798099901,None,115.69563984300112,None,116.44583030099966,None,116.69570236099753,None,116.69570236099753,None,d,0,0.40051647200016305,116.69570236099753,None,117.12877160100106,None,117.12877160100106,None,d,0.1673940410000796,117.12877160100106,None,117.32892693100075,None,,,,,sub-11,06/12/2002,2: Female,15/07/2023,002,1: right,2023_Jul_15_1401,[FINAL]_fmri_multiplication,2021.2.3,59.94412955276247
block5.xlsx,65.6,7.5,5.4,5 x 5,30,3,5 x 5 = 30,small-sized_low-interference,small-sized,low-interference,3,IncorrectRESP,d,0,0,0,0,0,4,4,4,,,,,,,,,,,,,,,126.92827850399772,None,127.42982647999816,None,129.42876638400048,None,130.1787615539979,None,130.43034095199982,None,130.43034095199982,None,a,0,0.6019694790011272,130.43034095199982,None,131.0616538789982,None,131.0616538789982,None,d,0.17856545600079698,131.0616538789982,None,131.2609780849998,None,,,,,sub-11,06/12/2002,2: Female,15/07/2023,002,1: right,2023_Jul_15_1401,[FINAL]_fmri_multiplication,2021.2.3,59.94412955276247
block5.xlsx,78.5,7.5,7.7,3 x 9,27,19,9 x 3 = 27,large-sized_high-interference,large-sized,high-interference,9,CorrectRESP,a,0,0,0,0,0,5,5,5,,,,,,,,,,,,,,,136.6624979,None,137.16241486500076,None,139.1599431350005,None,139.91242084499754,None,140.16302901299787,None,140.16302901299787,None,d,0,0.46122755199758103,140.16302901299787,None,140.64541295299932,None,140.64541295299932,None,d,0.1788403489990742,140.64541295299932,None,140.84542761299963,None,,,,,sub-11,06/12/2002,2: Female,15/07/2023,002,1: right,2023_Jul_15_1401,[FINAL]_fmri_multiplication,2021.2.3,59.94412955276247
block5.xlsx,93.7,7.5,3.5,2 x 8,18,5,8 x 2 = 18,small-sized_low-interference,small-sized,low-interference,7,IncorrectRESP,d,0,0,0,0,0,6,6,6,,,,,,,,,,,,,,,148.54536678300065,None,149.04537878599876,None,151.04608567000105,None,151.79549744199903,None,152.04537238400007,None,152.04537238400007,None,a,0,0.618819096,152.04537238400007,None,152.69558144999974,None,152.69558144999974,None,d,0.088695884,152.69558144999974,None,152.81219222199798,None,,,,,sub-11,06/12/2002,2: Female,15/07/2023,002,1: right,2023_Jul_15_1401,[FINAL]_fmri_multiplication,2021.2.3,59.94412955276247
block5.xlsx,104.7,7.5,6.4,7 x 7,49,18,7 x 7 = 49,large-sized_low-interference,large-sized,low-interference,7,CorrectRESP,a,0,0,0,0,0,7,7,7,,,,,,,,,,,,,,,156.31203471099798,None,156.81198775699886,None,158.8121587809983,None,159.56208056299874,None,159.81198316299924,None,159.81198316299924,None,d,0,1.1563493749999907,159.81198316299924,None,160.99541855400093,None,160.99541855400093,None,d,0.18087368800115655,160.99541855400093,None,161.19503933899978,None,,,,,sub-11,06/12/2002,2: Female,15/07/2023,002,1: right,2023_Jul_15_1401,[FINAL]_fmri_multiplication,2021.2.3,59.94412955276247
block5.xlsx,118.6,7.5,3.2,8 x 5,45,21,5 x 8 = 45,large-sized_high-interference,large-sized,high-interference,9,IncorrectRESP,d,0,0,0,0,0,8,8,8,,,,,,,,,,,,,,,167.5953413089992,None,168.09525662599845,None,170.09576365199973,None,170.84555755600013,None,171.09552403999987,None,171.09552403999987,None,a,0,1.1447584739980812,171.09552403999987,None,172.26209131200085,None,172.26209131200085,None,d,0.13019434200032265,172.26209131200085,None,172.41201655799887,None,,,,,sub-11,06/12/2002,2: Female,15/07/2023,002,1: right,2023_Jul_15_1401,[FINAL]_fmri_multiplication,2021.2.3,59.94412955276247
block5.xlsx,129.3,7.5,6.8,5 x 4,20,8,4 x 5 = 20,small-sized_high-interference,small-sized,high-interference,8,CorrectRESP,a,0,0,0,0,0,9,9,9,,,,,,,,,,,,,,,175.61262152600102,None,176.1280298290003,None,178.12923970499833,None,178.87929386199903,None,179.12927571699765,None,179.12927571699765,None,d,0,0.4789663909978117,179.12927571699765,None,179.62761086699902,None,179.62761086699902,None,d,0.1886125439996249,179.62761086699902,None,179.84593791899897,None,,,,,sub-11,06/12/2002,2: Female,15/07/2023,002,1: right,2023_Jul_15_1401,[FINAL]_fmri_multiplication,2021.2.3,59.94412955276247
block5.xlsx,143.6,7.5,5.5,6 x 5,30,14,5 x 6 = 30,large-sized_low-interference,large-sized,low-interference,6,CorrectRESP,a,0,0,0,0,0,10,10,10,,,,,,,,,,,,,,,186.64543800899992,None,187.1454826909976,None,189.1454313209979,None,189.89549180099857,None,190.1453947859991,None,190.1453947859991,None,d,0,0.34282898799938266,190.1453947859991,None,190.51169701599792,None,190.51169701599792,None,d,0.18452656000226852,190.51169701599792,None,190.7287578639989,None,,,,,sub-11,06/12/2002,2: Female,15/07/2023,002,1: right,2023_Jul_15_1401,[FINAL]_fmri_multiplication,2021.2.3,59.94412955276247
block5.xlsx,156.6,7.5,6,3 x 7,24,11,7 x 3 = 24,small-sized_high-interference,small-sized,high-interference,13,IncorrectRESP,d,0,0,0,0,0,11,11,11,,,,,,,,,,,,,,,196.22884491799778,None,196.72910255399984,None,198.72872010799983,None,199.4788999329976,None,199.72759786700044,None,199.72759786700044,None,a,0,0.6407606259999739,199.72759786700044,None,200.39480282899967,None,200.39480282899967,None,d,0.14154316999702132,200.39480282899967,None,200.56142804699994,None,,,,,sub-11,06/12/2002,2: Female,15/07/2023,002,1: right,2023_Jul_15_1401,[FINAL]_fmri_multiplication,2021.2.3,59.94412955276247
block5.xlsx,170.1,7.5,7.1,5 x 7,40,17,7 x 5 = 40,large-sized_low-interference,large-sized,low-interference,7,IncorrectRESP,d,0,0,0,0,0,12,12,12,,,,,,,,,,,,,,,206.56184551499973,None,207.06262665699978,None,209.06283403699854,None,209.81267375899915,None,210.06320301599771,None,210.06320301599771,None,a,0,0.8250240000015765,210.06320301599771,None,210.91210199899797,None,210.91210199899797,None,d,0.12821057200198993,210.91210199899797,None,211.06218736200026,None,,,,,sub-11,06/12/2002,2: Female,15/07/2023,002,1: right,2023_Jul_15_1401,[FINAL]_fmri_multiplication,2021.2.3,59.94412955276247
block5.xlsx,184.7,7.5,5.3,4 x 6,28,10,6 x 4 = 28,small-sized_high-interference,small-sized,high-interference,12,IncorrectRESP,d,0,0,0,0,0,13,13,13,,,,,,,,,,,,,,,218.16246446399964,None,218.66202420899936,None,220.66237270999773,None,221.41224815799796,None,221.66200420799942,None,221.66200420799942,None,a,0,0.6903274780015636,221.66200420799942,None,222.37794438999845,None,222.37794438999845,None,d,0.070266675,222.37794438999845,None,222.47915980499965,None,,,,,sub-11,06/12/2002,2: Female,15/07/2023,002,1: right,2023_Jul_15_1401,[FINAL]_fmri_multiplication,2021.2.3,59.94412955276247
block5.xlsx,197.5,7.5,4.2,2 x 7,14,1,7 x 2 = 14,small-sized_low-interference,small-sized,low-interference,4,CorrectRESP,a,0,0,0,0,0,14,14,14,,,,,,,,,,,,,,,227.77887651499987,None,228.27896318499916,None,230.2787856,None,231.02883141200073,None,231.27916812200056,None,231.27916812200056,None,d,0,0.44903445900126826,231.27916812200056,None,231.7613379209979,None,231.7613379209979,None,d,0.1669685329979984,231.7613379209979,None,231.94547603200044,None,,,,,sub-11,06/12/2002,2: Female,15/07/2023,002,1: right,2023_Jul_15_1401,[FINAL]_fmri_multiplication,2021.2.3,59.94412955276247
block5.xlsx,209.2,7.5,7.2,9 x 4,36,20,4 x 9 = 36,large-sized_high-interference,large-sized,high-interference,9,CorrectRESP,a,0,0,0,0,0,15,15,15,,,,,,,,,,,,,,,236.1453967769994,None,236.64591471399763,None,238.6454837559977,None,239.39561044400034,None,239.64611475999845,None,239.64611475999845,None,d,0,0.4020982250003726,239.64611475999845,None,240.07784149500003,None,240.07784149500003,None,d,0.17037158499806537,240.07784149500003,None,240.2790649460003,None,,,,,sub-11,06/12/2002,2: Female,15/07/2023,002,1: right,2023_Jul_15_1401,[FINAL]_fmri_multiplication,2021.2.3,59.94412955276247
block5.xlsx,223.9,7.5,4.3,4 x 4,20,4,4 x 4 = 20,small-sized_low-interference,small-sized,low-interference,5,IncorrectRESP,d,0,0,0,0,0,16,16,16,,,,,,,,,,,,,,,247.4793055650007,None,247.97919877299864,None,249.97926240499874,None,250.72924526499992,None,250.97975944499922,None,250.97975944499922,None,a,0,0.6684411590031232,250.97975944499922,None,251.67921812299755,None,251.67921812299755,None,d,0.0730966,251.67921812299755,None,251.7790409909976,None,,,,,sub-11,06/12/2002,2: Female,15/07/2023,002,1: right,2023_Jul_15_1401,[FINAL]_fmri_multiplication,2021.2.3,59.94412955276247
block5.xlsx,235.7,7.5,9.9,6 x 7,48,23,7 x 6 = 48,large-sized_high-interference,large-sized,high-interference,22,IncorrectRESP,d,0,0,0,0,0,17,17,17,,,,,,,,,,,,,,,256.07879540299837,None,256.57839261999834,None,258.5788877,None,259.3287617770002,None,259.5786991479981,None,259.5786991479981,None,a,0,0.5335291410010541,259.5786991479981,None,260.1450359320006,None,260.1450359320006,None,d,0.11919092399693909,260.1450359320006,None,260.29489985300097,None,,,,,sub-11,06/12/2002,2: Female,15/07/2023,002,1: right,2023_Jul_15_1401,[FINAL]_fmri_multiplication,2021.2.3,59.94412955276247
block5.xlsx,253.1,7.5,3.1,9 x 2,18,2,2 x 9 = 18,small-sized_low-interference,small-sized,low-interference,7,CorrectRESP,a,0,0,0,0,0,18,18,18,,,,,,,,,,,,,,,270.1948298520001,None,270.6964037389989,None,272.6955211530003,None,273.4455626,None,273.6953750979992,None,273.6953750979992,None,d,0,0.32093888000235893,273.6953750979992,None,274.0455994160002,None,274.0455994160002,None,d,0.16267675400013104,274.0455994160002,None,274.22845568699995,None,,,,,sub-11,06/12/2002,2: Female,15/07/2023,002,1: right,2023_Jul_15_1401,[FINAL]_fmri_multiplication,2021.2.3,59.94412955276247
block5.xlsx,263.7,7.5,4.6,5 x 9,40,15,9 x 5 = 40,large-sized_low-interference,large-sized,low-interference,6,IncorrectRESP,d,0,0,0,0,0,19,19,19,,,,,,,,,,,,,,,277.3290340499989,None,277.82913150199965,None,279.82933810800023,None,280.5780831230004,None,280.8294555200009,None,280.8294555200009,None,a,0,0.466762275,280.8294555200009,None,281.3292187219995,None,281.3292187219995,None,d,0.12702819999685744,281.3292187219995,None,281.4792435349991,None,,,,,sub-11,06/12/2002,2: Female,15/07/2023,002,1: right,2023_Jul_15_1401,[FINAL]_fmri_multiplication,2021.2.3,59.94412955276247
block5.xlsx,275.8,7.5,3.9,7 x 8,63,22,8 x 7 = 63,large-sized_high-interference,large-sized,high-interference,9,IncorrectRESP,d,0,0,0,0,0,20,20,20,,,,,,,,,,,,,,,286.0793960289993,None,286.57909796699823,None,288.57879404199775,None,289.32949230099985,None,289.5786213459978,None,289.5786213459978,None,a,0,0.6376968229997146,289.5786213459978,None,290.24547066299783,None,290.24547066299783,None,d,0.10684554899853538,290.24547066299783,None,290.3791705980002,None,,,,,sub-11,06/12/2002,2: Female,15/07/2023,002,1: right,2023_Jul_15_1401,[FINAL]_fmri_multiplication,2021.2.3,59.94412955276247
block5.xlsx,287.2,7.5,7.4,4 x 3,15,9,3 x 4 = 15,small-sized_high-interference,small-sized,high-interference,10,IncorrectRESP,d,0,0,0,0,0,21,21,21,,,,,,,,,,,,,,,294.2789444359987,None,294.77871433399923,None,296.7788042909997,None,297.52884059400094,None,297.7786238,None,297.7786238,None,a,0,0.6137744629995723,297.7786238,None,298.4117028879991,None,298.4117028879991,None,d,0.092521414,298.4117028879991,None,298.52840969799945,None,,,,,sub-11,06/12/2002,2: Female,15/07/2023,002,1: right,2023_Jul_15_1401,[FINAL]_fmri_multiplication,2021.2.3,59.94412955276247
block5.xlsx,302.1,7.5,7.1,4 x 8,32,24,8 x 4 = 32,large-sized_high-interference,large-sized,high-interference,25,CorrectRESP,a,0,0,0,0,0,22,22,22,,,,,,,,,,,,,,,305.9288963580002,None,306.4288980380006,None,308.4288390069996,None,309.17879753300076,None,309.42924800299807,None,309.42924800299807,None,d,0,0.963050235,309.42924800299807,None,310.4119516649989,None,310.4119516649989,None,d,0.1883654569974169,310.4119516649989,None,310.6288998969976,None,,,,,sub-11,06/12/2002,2: Female,15/07/2023,002,1: right,2023_Jul_15_1401,[FINAL]_fmri_multiplication,2021.2.3,59.94412955276247
block5.xlsx,316.7,7.5,10.8,6 x 6,36,13,6 x 6 = 36,large-sized_low-interference,large-sized,low-interference,4,CorrectRESP,a,0,0,0,0,0,23,23,23,,,,,,,,,,,,,,,317.7290172489993,None,318.22884914899987,None,320.2292046,None,320.97830375099875,None,321.2291203,None,321.2291203,None,d,0,0.45110462799857487,321.2291203,None,321.71217129199795,None,321.71217129199795,None,d,0.1600969940009236,321.71217129199795,None,321.8952863429986,None,,,,,sub-11,06/12/2002,2: Female,15/07/2023,002,1: right,2023_Jul_15_1401,[FINAL]_fmri_multiplication,2021.2.3,59.94412955276247
block5.xlsx,,,,,,,,,,,,,,0,0,0,0,,,,,0,0,0,0,,,,,,,,,,,,,,,,,,,,,,,,,,,,,,,,,,,,,,332.6976458539975,None,332.6976458539975,None,sub-11,06/12/2002,2: Female,15/07/2023,002,1: right,2023_Jul_15_1401,[FINAL]_fmri_multiplication,2021.2.3,59.94412955276247
block5.xlsx,,,,,,,,,,,,,,0,0,0,0,,,,,1,0,1,0,,,,,,,,,,,,,,,,,,,,,,,,,,,,,,,,,,,,,,333.71472796300077,None,333.71472796300077,None,sub-11,06/12/2002,2: Female,15/07/2023,002,1: right,2023_Jul_15_1401,[FINAL]_fmri_multiplication,2021.2.3,59.94412955276247
block5.xlsx,,,,,,,,,,,,,,0,0,0,0,,,,,2,0,2,0,,,,,,,,,,,,,,,,,,,,,,,,,,,,,,,,,,,,,,334.71373524500086,None,334.71373524500086,None,sub-11,06/12/2002,2: Female,15/07/2023,002,1: right,2023_Jul_15_1401,[FINAL]_fmri_multiplication,2021.2.3,59.94412955276247
block5.xlsx,,,,,,,,,,,,,,0,0,0,0,,,,,3,0,3,0,,,,,,,,,,,,,,,,,,,,,,,,,,,,,,,,,,,,,,335.71374617999754,None,335.71374617999754,None,sub-11,06/12/2002,2: Female,15/07/2023,002,1: right,2023_Jul_15_1401,[FINAL]_fmri_multiplication,2021.2.3,59.94412955276247
block5.xlsx,,,,,,,,,,,,,,0,0,0,0,,,,,4,0,4,0,,,,,,,,,,,,,,,,,,,,,,,,,,,,,,,,,,,,,,336.71391326199955,None,336.71391326199955,None,sub-11,06/12/2002,2: Female,15/07/2023,002,1: right,2023_Jul_15_1401,[FINAL]_fmri_multiplication,2021.2.3,59.94412955276247
block5.xlsx,,,,,,,,,,,,,,0,0,0,0,,,,,5,0,5,0,,,,,,,,,,,,,,,,,,,,,,,,,,,,,,,,,,,,,,337.7137953019992,None,337.7137953019992,None,sub-11,06/12/2002,2: Female,15/07/2023,002,1: right,2023_Jul_15_1401,[FINAL]_fmri_multiplication,2021.2.3,59.94412955276247
block5.xlsx,,,,,,,,,,,,,,0,0,0,0,,,,,6,0,6,0,,,,,,,,,,,,,,,,,,,,,,,,,,,,,,,,,,,,,,338.7138760070011,None,338.7138760070011,None,sub-11,06/12/2002,2: Female,15/07/2023,002,1: right,2023_Jul_15_1401,[FINAL]_fmri_multiplication,2021.2.3,59.94412955276247
block5.xlsx,,,,,,,,,,,,,,0,0,0,0,,,,,7,0,7,0,,,,,,,,,,,,,,,,,,,,,,,,,,,,,,,,,,,,,,339.7130691,None,339.7130691,None,sub-11,06/12/2002,2: Female,15/07/2023,002,1: right,2023_Jul_15_1401,[FINAL]_fmri_multiplication,2021.2.3,59.94412955276247
block5.xlsx,,,,,,,,,,,,,,0,0,0,0,,,,,8,0,8,0,,,,,,,,,,,,,,,,,,,,,,,,,,,,,,,,,,,,,,340.7125935719996,None,340.7125935719996,None,sub-11,06/12/2002,2: Female,15/07/2023,002,1: right,2023_Jul_15_1401,[FINAL]_fmri_multiplication,2021.2.3,59.94412955276247
block5.xlsx,,,,,,,,,,,,,,0,0,0,0,,,,,9,0,9,0,,,,,,,,,,,,,,,,,,,,,,,,,,,,,,,,,,,,,,341.71401772399986,None,341.71401772399986,None,sub-11,06/12/2002,2: Female,15/07/2023,002,1: right,2023_Jul_15_1401,[FINAL]_fmri_multiplication,2021.2.3,59.94412955276247
block5.xlsx,,,,,,,,,,,,,,0,0,0,0,,,,,10,0,10,0,,,,,,,,,,,,,,,,,,,,,,,,,,,,,,,,,,,,,,342.7124239820005,None,342.7124239820005,None,sub-11,06/12/2002,2: Female,15/07/2023,002,1: right,2023_Jul_15_1401,[FINAL]_fmri_multiplication,2021.2.3,59.94412955276247
block5.xlsx,,,,,,,,,,,,,,0,0,0,0,,,,,11,0,11,0,,,,,,,,,,,,,,,,,,,,,,,,,,,,,,,,,,,,,,343.7132810059993,None,343.7132810059993,None,sub-11,06/12/2002,2: Female,15/07/2023,002,1: right,2023_Jul_15_1401,[FINAL]_fmri_multiplication,2021.2.3,59.94412955276247
block5.xlsx,,,,,,,,,,,,,,0,0,0,0,,,,,12,0,12,0,,,,,,,,,,,,,,,,,,,,,,,,,,,,,,,,,,,,,,344.71361605199854,None,344.71361605199854,None,sub-11,06/12/2002,2: Female,15/07/2023,002,1: right,2023_Jul_15_1401,[FINAL]_fmri_multiplication,2021.2.3,59.94412955276247
block5.xlsx,,,,,,,,,,,,,,0,0,0,0,,,,,13,0,13,0,,,,,,,,,,,,,,,,,,,,,,,,,,,,,,,,,,,,,,345.7131478,None,345.7131478,None,sub-11,06/12/2002,2: Female,15/07/2023,002,1: right,2023_Jul_15_1401,[FINAL]_fmri_multiplication,2021.2.3,59.94412955276247
block5.xlsx,,,,,,,,,,,,,,0,0,0,0,,,,,14,0,14,0,,,,,,,,,,,,,,,,,,,,,,,,,,,,,,,,,,,,,,346.71290150599816,None,346.71290150599816,None,sub-11,06/12/2002,2: Female,15/07/2023,002,1: right,2023_Jul_15_1401,[FINAL]_fmri_multiplication,2021.2.3,59.94412955276247
block5.xlsx,,,,,,,,,,,,,,0,0,0,0,,,,,15,0,15,0,,,,,,,,,,,,,,,,,,,,,,,,,,,,,,,,,,,,,,347.7148247160003,None,347.7148247160003,None,sub-11,06/12/2002,2: Female,15/07/2023,002,1: right,2023_Jul_15_1401,[FINAL]_fmri_multiplication,2021.2.3,59.94412955276247
block5.xlsx,,,,,,,,,,,,,,0,0,0,0,,,,,16,0,16,0,,,,,,,,,,,,,,,,,,,,,,,,,,,,,,,,,,,,,,348.71249705899754,None,348.71249705899754,None,sub-11,06/12/2002,2: Female,15/07/2023,002,1: right,2023_Jul_15_1401,[FINAL]_fmri_multiplication,2021.2.3,59.94412955276247
block5.xlsx,,,,,,,,,,,,,,0,0,0,0,,,,,17,0,17,0,,,,,,,,,,,,,,,,,,,,,,,,,,,,,,,,,,,,,,349.71296866099874,None,349.71296866099874,None,sub-11,06/12/2002,2: Female,15/07/2023,002,1: right,2023_Jul_15_1401,[FINAL]_fmri_multiplication,2021.2.3,59.94412955276247
block5.xlsx,,,,,,,,,,,,,,0,0,0,0,,,,,18,0,18,0,,,,,,,,,,,,,,,,,,,,,,,,,,,,,,,,,,,,,,350.71297291299925,None,350.71297291299925,None,sub-11,06/12/2002,2: Female,15/07/2023,002,1: right,2023_Jul_15_1401,[FINAL]_fmri_multiplication,2021.2.3,59.94412955276247
block5.xlsx,,,,,,,,,,,,,,0,0,0,0,,,,,19,0,19,0,,,,,,,,,,,,,,,,,,,,,,,,,,,,,,,,,,,,,,351.71418330899905,None,351.71418330899905,None,sub-11,06/12/2002,2: Female,15/07/2023,002,1: right,2023_Jul_15_1401,[FINAL]_fmri_multiplication,2021.2.3,59.94412955276247
block5.xlsx,,,,,,,,,,,,,,0,0,0,0,,,,,20,0,20,0,,,,,,,,,,,,,,,,,,,,,,,,,,,,,,,,,,,,,,352.71237629999814,None,352.71237629999814,None,sub-11,06/12/2002,2: Female,15/07/2023,002,1: right,2023_Jul_15_1401,[FINAL]_fmri_multiplication,2021.2.3,59.94412955276247
block5.xlsx,,,,,,,,,,,,,,0,0,0,0,,,,,21,0,21,0,,,,,,,,,,,,,,,,,,,,,,,,,,,,,,,,,,,,,,353.71341884999856,None,353.71341884999856,None,sub-11,06/12/2002,2: Female,15/07/2023,002,1: right,2023_Jul_15_1401,[FINAL]_fmri_multiplication,2021.2.3,59.94412955276247
block5.xlsx,,,,,,,,,,,,,,0,0,0,0,,,,,22,0,22,0,,,,,,,,,,,,,,,,,,,,,,,,,,,,,,,,,,,,,,354.7128572840011,None,354.7128572840011,None,sub-11,06/12/2002,2: Female,15/07/2023,002,1: right,2023_Jul_15_1401,[FINAL]_fmri_multiplication,2021.2.3,59.94412955276247
block5.xlsx,,,,,,,,,,,,,,0,0,0,0,,,,,23,0,23,0,,,,,,,,,,,,,,,,,,,,,,,,,,,,,,,,,,,,,,355.71276235299956,None,355.71276235299956,None,sub-11,06/12/2002,2: Female,15/07/2023,002,1: right,2023_Jul_15_1401,[FINAL]_fmri_multiplication,2021.2.3,59.94412955276247
block5.xlsx,,,,,,,,,,,,,,0,0,0,0,,,,,24,0,24,0,,,,,,,,,,,,,,,,,,,,,,,,,,,,,,,,,,,,,,356.7126186009991,None,356.7126186009991,None,sub-11,06/12/2002,2: Female,15/07/2023,002,1: right,2023_Jul_15_1401,[FINAL]_fmri_multiplication,2021.2.3,59.94412955276247
block5.xlsx,,,,,,,,,,,,,,0,0,0,0,,,,,25,0,25,0,,,,,,,,,,,,,,,,,,,,,,,,,,,,,,,,,,,,,,357.7132338909978,None,357.7132338909978,None,sub-11,06/12/2002,2: Female,15/07/2023,002,1: right,2023_Jul_15_1401,[FINAL]_fmri_multiplication,2021.2.3,59.94412955276247
block5.xlsx,,,,,,,,,,,,,,0,0,0,0,,,,,26,0,26,0,,,,,,,,,,,,,,,,,,,,,,,,,,,,,,,,,,,,,,358.71145579400036,None,358.71145579400036,None,sub-11,06/12/2002,2: Female,15/07/2023,002,1: right,2023_Jul_15_1401,[FINAL]_fmri_multiplication,2021.2.3,59.94412955276247
block5.xlsx,,,,,,,,,,,,,,0,0,0,0,,,,,27,0,27,0,,,,,,,,,,,,,,,,,,,,,,,,,,,,,,,,,,,,,,359.7117666140002,None,359.7117666140002,None,sub-11,06/12/2002,2: Female,15/07/2023,002,1: right,2023_Jul_15_1401,[FINAL]_fmri_multiplication,2021.2.3,59.94412955276247
block5.xlsx,,,,,,,,,,,,,,0,0,0,0,,,,,28,0,28,0,,,,,,,,,,,,,,,,,,,,,,,,,,,,,,,,,,,,,,360.71219457799816,None,360.71219457799816,None,sub-11,06/12/2002,2: Female,15/07/2023,002,1: right,2023_Jul_15_1401,[FINAL]_fmri_multiplication,2021.2.3,59.94412955276247
block5.xlsx,,,,,,,,,,,,,,0,0,0,0,,,,,29,0,29,0,,,,,,,,,,,,,,,,,,,,,,,,,,,,,,,,,,,,,,361.7119224,None,361.7119224,None,sub-11,06/12/2002,2: Female,15/07/2023,002,1: right,2023_Jul_15_1401,[FINAL]_fmri_multiplication,2021.2.3,59.94412955276247
block5.xlsx,,,,,,,,,,,,,,0,0,0,0,,,,,,,,,,,,,,,,,,,,,,,,,,,,,,,,,,,,,,,,,,,,,,,,,,sub-11,06/12/2002,2: Female,15/07/2023,002,1: right,2023_Jul_15_1401,[FINAL]_fmri_multiplication,2021.2.3,59.94412955276247
block6.xlsx,10,7.5,4.1,6 x 5,36,14,5 x 6 = 36,large-sized_low-interference,large-sized,low-interference,6,IncorrectRESP,d,0,1,1,1,0,0,0,0,,,,,,,,,,,,,362.7123801,None,372.73618577399975,None,373.2111300939978,None,375.2111404569987,None,375.9618224879996,None,376.21227613299925,None,376.21227613299925,None,a,0,0.45994212799996603,376.21227613299925,None,376.694972,None,376.694972,None,d,0.11325899100120296,376.694972,None,376.8282119030009,None,,,,,sub-11,06/12/2002,2: Female,15/07/2023,002,1: right,2023_Jul_15_1401,[FINAL]_fmri_multiplication,2021.2.3,59.94412955276247
block6.xlsx,21.6,7.5,7.2,2 x 6,10,6,6 x 2 = 10,small-sized_low-interference,small-sized,low-interference,3,IncorrectRESP,d,0,1,1,1,0,1,1,1,,,,,,,,,,,,,,,380.92896057100006,None,381.4290784179975,None,383.4286606729984,None,384.17928434200076,None,384.4304595979993,None,384.4304595979993,None,a,0,0.5138453950021358,384.4304595979993,None,384.9624890979976,None,384.9624890979976,None,d,0.093866836,384.9624890979976,None,385.07889448700007,None,,,,,sub-11,06/12/2002,2: Female,15/07/2023,002,1: right,2023_Jul_15_1401,[FINAL]_fmri_multiplication,2021.2.3,59.94412955276247
block6.xlsx,36.3,7.5,13.8,6 x 7,42,23,7 x 6 = 42,large-sized_high-interference,large-sized,high-interference,22,CorrectRESP,a,0,1,1,1,0,2,2,2,,,,,,,,,,,,,,,392.27911311999924,None,392.7786893739976,None,394.7789582969999,None,395.5287997029991,None,395.77879183099867,None,395.77879183099867,None,d,0,0.797552051,395.77879183099867,None,396.5952023009995,None,396.5952023009995,None,d,0.1970800880008028,396.5952023009995,None,396.81168233599965,None,,,,,sub-11,06/12/2002,2: Female,15/07/2023,002,1: right,2023_Jul_15_1401,[FINAL]_fmri_multiplication,2021.2.3,59.94412955276247
block6.xlsx,57.6,7.5,3.7,3 x 7,21,11,7 x 3 = 21,small-sized_high-interference,small-sized,high-interference,13,CorrectRESP,a,0,1,1,1,0,3,3,3,,,,,,,,,,,,,,,410.6117343299993,None,411.11219544999767,None,413.1120455429991,None,413.8622239779979,None,414.11261699999886,None,414.11261699999886,None,a,1,0.5595930099989346,414.11261699999886,None,414.69508419699923,None,414.69508419699923,None,d,0.1291655509994598,414.69508419699923,None,414.84497802699843,None,,,,,sub-11,06/12/2002,2: Female,15/07/2023,002,1: right,2023_Jul_15_1401,[FINAL]_fmri_multiplication,2021.2.3,59.94412955276247
block6.xlsx,68.8,7.5,7.8,2 x 7,12,1,7 x 2 = 12,small-sized_low-interference,small-sized,low-interference,4,IncorrectRESP,d,0,1,1,1,0,4,4,4,,,,,,,,,,,,,,,418.5453136,None,419.0639667819996,None,421.06277516499904,None,421.8115824380002,None,422.06269278499894,None,422.06269278499894,None,a,0,0.5535632489991258,422.06269278499894,None,422.6445739289993,None,422.6445739289993,None,d,0.091739105,422.6445739289993,None,422.76237570599915,None,,,,,sub-11,06/12/2002,2: Female,15/07/2023,002,1: right,2023_Jul_15_1401,[FINAL]_fmri_multiplication,2021.2.3,59.94412955276247
block6.xlsx,84.1,7.5,8.6,3 x 9,24,19,9 x 3 = 24,large-sized_high-interference,large-sized,high-interference,9,IncorrectRESP,d,0,1,1,1,0,5,5,5,,,,,,,,,,,,,,,430.56166706599834,None,431.06201267899814,None,433.06253848599954,None,433.81214809800076,None,434.06232779799757,None,434.06232779799757,None,a,0,0.7459337260006578,434.06232779799757,None,434.8283805360006,None,434.8283805360006,None,d,0.13196675200015306,434.8283805360006,None,434.97828893800033,None,,,,,sub-11,06/12/2002,2: Female,15/07/2023,002,1: right,2023_Jul_15_1401,[FINAL]_fmri_multiplication,2021.2.3,59.94412955276247
block6.xlsx,100.2,7.5,3.3,4 x 6,24,10,6 x 4 = 24,small-sized_high-interference,small-sized,high-interference,12,CorrectRESP,a,0,1,1,1,0,6,6,6,,,,,,,,,,,,,,,443.5788251570011,None,444.07885819500007,None,446.07818958200005,None,446.8288399819976,None,447.0786846,None,447.0786846,None,d,0,0.6496632779999345,447.0786846,None,447.74548222999874,None,447.74548222999874,None,d,0.18284629999834578,447.74548222999874,None,447.9450113,None,,,,,sub-11,06/12/2002,2: Female,15/07/2023,002,1: right,2023_Jul_15_1401,[FINAL]_fmri_multiplication,2021.2.3,59.94412955276247
block6.xlsx,111,7.5,6.3,9 x 2,16,2,2 x 9 = 16,small-sized_low-interference,small-sized,low-interference,7,IncorrectRESP,d,0,1,1,1,0,7,7,7,,,,,,,,,,,,,,,451.2456098139992,None,451.7458138539987,None,453.7456607460008,None,454.4960570839976,None,454.7490506190006,None,454.7490506190006,None,a,0,0.41926300399791216,454.7490506190006,None,455.19543725100084,None,455.19543725100084,None,d,0.12487586499992176,455.19543725100084,None,455.34560160399997,None,,,,,sub-11,06/12/2002,2: Female,15/07/2023,002,1: right,2023_Jul_15_1401,[FINAL]_fmri_multiplication,2021.2.3,59.94412955276247
block6.xlsx,124.8,7.5,3.1,6 x 6,30,13,6 x 6 = 30,large-sized_low-interference,large-sized,low-interference,4,IncorrectRESP,d,0,1,1,1,0,8,8,8,,,,,,,,,,,,,,,461.6459765489999,None,462.14502660200014,None,464.14555456000016,None,464.8957471729991,None,465.1453305699979,None,465.1453305699979,None,a,0,0.4469590459993924,465.1453305699979,None,465.61152688199945,None,465.61152688199945,None,d,0.10066875499978778,465.61152688199945,None,465.7288264960007,None,,,,,sub-11,06/12/2002,2: Female,15/07/2023,002,1: right,2023_Jul_15_1401,[FINAL]_fmri_multiplication,2021.2.3,59.94412955276247
block6.xlsx,135.4,7.5,2.7,5 x 4,16,8,4 x 5 = 16,small-sized_high-interference,small-sized,high-interference,8,IncorrectRESP,d,0,1,1,1,0,9,9,9,,,,,,,,,,,,,,,468.82895043999815,None,469.3286265149982,None,471.3287668599987,None,472.07883081199907,None,472.32873266800016,None,472.32873266800016,None,a,0,0.4156358830005047,472.32873266800016,None,472.7620037380002,None,472.7620037380002,None,d,0.094294502,472.7620037380002,None,472.87836382399837,None,,,,,sub-11,06/12/2002,2: Female,15/07/2023,002,1: right,2023_Jul_15_1401,[FINAL]_fmri_multiplication,2021.2.3,59.94412955276247
block6.xlsx,145.6,7.5,5.1,5 x 5,25,3,5 x 5 = 25,small-sized_low-interference,small-sized,low-interference,3,CorrectRESP,a,0,1,1,1,0,10,10,10,,,,,,,,,,,,,,,475.5785838570009,None,476.0785930969978,None,478.07835240699933,None,478.8288362469975,None,479.07908204900014,None,479.07908204900014,None,d,0,0.36112794099972234,479.07908204900014,None,479.46165211100015,None,479.46165211100015,None,d,0.18655141000272124,479.46165211100015,None,479.67880932700064,None,,,,,sub-11,06/12/2002,2: Female,15/07/2023,002,1: right,2023_Jul_15_1401,[FINAL]_fmri_multiplication,2021.2.3,59.94412955276247
block6.xlsx,158.2,7.5,2.9,7 x 7,56,18,7 x 7 = 56,large-sized_low-interference,large-sized,low-interference,7,IncorrectRESP,d,0,1,1,1,0,11,11,11,,,,,,,,,,,,,,,484.7785216810007,None,485.2788674759977,None,487.27882795799815,None,488.0289399329995,None,488.2815709780007,None,488.2815709780007,None,d,1,0.6547462960006669,488.2815709780007,None,488.9621599460006,None,488.9621599460006,None,d,0.1741593719998491,488.9621599460006,None,489.1621393009991,None,,,,,sub-11,06/12/2002,2: Female,15/07/2023,002,1: right,2023_Jul_15_1401,[FINAL]_fmri_multiplication,2021.2.3,59.94412955276247
block6.xlsx,168.6,7.5,5.7,3 x 6,15,7,6 x 3 = 15,small-sized_high-interference,small-sized,high-interference,8,IncorrectRESP,d,0,1,1,1,0,12,12,12,,,,,,,,,,,,,,,492.06206568199923,None,492.562009,None,494.5625431689987,None,495.3126518450008,None,495.5623872949982,None,495.5623872949982,None,a,0,0.47783271500156843,495.5623872949982,None,496.06209342799775,None,496.06209342799775,None,d,0.090211647,496.06209342799775,None,496.17837162700016,None,,,,,sub-11,06/12/2002,2: Female,15/07/2023,002,1: right,2023_Jul_15_1401,[FINAL]_fmri_multiplication,2021.2.3,59.94412955276247
block6.xlsx,181.8,7.5,3,2 x 8,16,5,8 x 2 = 16,small-sized_low-interference,small-sized,low-interference,7,CorrectRESP,a,0,1,1,1,0,13,13,13,,,,,,,,,,,,,,,501.87887025099917,None,502.3784325409979,None,504.3779341,None,505.1289523,None,505.37855330899765,None,505.37855330899765,None,a,1,0.36575234799965983,505.37855330899765,None,505.7620513309994,None,505.7620513309994,None,a,0.9582528659993841,505.7620513309994,None,506.7451878699976,None,,,,,sub-11,06/12/2002,2: Female,15/07/2023,002,1: right,2023_Jul_15_1401,[FINAL]_fmri_multiplication,2021.2.3,59.94412955276247
block6.xlsx,192.3,7.5,5.9,5 x 9,45,15,9 x 5 = 45,large-sized_low-interference,large-sized,low-interference,6,CorrectRESP,a,0,1,1,1,0,14,14,14,,,,,,,,,,,,,,,509.74570277900057,None,510.24537607399907,None,512.2453941960011,None,512.9954870740003,None,513.2457480859994,None,513.2457480859994,None,d,0,0.38646225499905995,513.2457480859994,None,513.6621050779977,None,513.6621050779977,None,d,0.17017923499952303,513.6621050779977,None,513.8621602540006,None,,,,,sub-11,06/12/2002,2: Female,15/07/2023,002,1: right,2023_Jul_15_1401,[FINAL]_fmri_multiplication,2021.2.3,59.94412955276247
block6.xlsx,205.7,7.5,2.1,4 x 3,12,9,3 x 4 = 12,small-sized_high-interference,small-sized,high-interference,10,CorrectRESP,a,0,1,1,1,0,15,15,15,,,,,,,,,,,,,,,519.7621995199988,None,520.2619167849989,None,522.2622862869976,None,523.0123613670003,None,523.2627930710005,None,523.2627930710005,None,d,0,0.32959272199877887,523.2627930710005,None,523.6120967530005,None,523.6120967530005,None,d,0.17222028200194472,523.6120967530005,None,523.8125425849976,None,,,,,sub-11,06/12/2002,2: Female,15/07/2023,002,1: right,2023_Jul_15_1401,[FINAL]_fmri_multiplication,2021.2.3,59.94412955276247
block6.xlsx,215.3,7.5,9.9,7 x 8,56,22,8 x 7 = 56,large-sized_high-interference,large-sized,high-interference,9,CorrectRESP,a,0,1,1,1,0,16,16,16,,,,,,,,,,,,,,,525.9093322,None,526.4045762860005,None,528.4126788569993,None,529.1625652219991,None,529.4128825789994,None,529.4128825789994,None,d,0,1.3794678049998765,529.4128825789994,None,530.8114205620004,None,530.8114205620004,None,d,0.1809107799999765,530.8114205620004,None,531.0120600490009,None,,,,,sub-11,06/12/2002,2: Female,15/07/2023,002,1: right,2023_Jul_15_1401,[FINAL]_fmri_multiplication,2021.2.3,59.94412955276247
block6.xlsx,232.7,7.5,2.2,8 x 3,21,12,3 x 8 = 21,small-sized_high-interference,small-sized,high-interference,13,IncorrectRESP,d,0,1,1,1,0,17,17,17,,,,,,,,,,,,,,,540.9290334529978,None,541.4286150609987,None,543.4283853109991,None,544.1786284640002,None,544.4296897029999,None,544.4296897029999,None,a,0,0.6266142570020747,544.4296897029999,None,545.0783345130003,None,545.0783345130003,None,d,0.12200800600112416,545.0783345130003,None,545.2288194,None,,,,,sub-11,06/12/2002,2: Female,15/07/2023,002,1: right,2023_Jul_15_1401,[FINAL]_fmri_multiplication,2021.2.3,59.94412955276247
block6.xlsx,242.4,7.5,7.9,9 x 9,81,16,9 x 9 = 81,large-sized_low-interference,large-sized,low-interference,6,CorrectRESP,a,0,1,1,1,0,18,18,18,,,,,,,,,,,,,,,547.4288637569989,None,547.9287714009988,None,549.9287636849986,None,550.6787611229993,None,550.9287818470002,None,550.9287818470002,None,d,0,0.351435622,550.9287818470002,None,551.3123834920007,None,551.3123834920007,None,d,0.17581959900053334,551.3123834920007,None,551.5110198,None,,,,,sub-11,06/12/2002,2: Female,15/07/2023,002,1: right,2023_Jul_15_1401,[FINAL]_fmri_multiplication,2021.2.3,59.94412955276247
block6.xlsx,257.8,7.5,8.3,9 x 4,32,20,4 x 9 = 32,large-sized_high-interference,large-sized,high-interference,9,IncorrectRESP,d,0,1,1,1,0,19,19,19,,,,,,,,,,,,,,,559.4124712619996,None,559.9096749,None,561.9126242,None,562.6625588959978,None,562.9130110859987,None,562.9130110859987,None,a,0,1.0872924659997807,562.9130110859987,None,564.0288024539987,None,564.0288024539987,None,d,0.14747258499846794,564.0288024539987,None,564.1954619110002,None,,,,,sub-11,06/12/2002,2: Female,15/07/2023,002,1: right,2023_Jul_15_1401,[FINAL]_fmri_multiplication,2021.2.3,59.94412955276247
block6.xlsx,273.6,7.5,12.1,5 x 7,35,17,7 x 5 = 35,large-sized_low-interference,large-sized,low-interference,7,CorrectRESP,a,0,1,1,1,0,20,20,20,,,,,,,,,,,,,,,572.4955291629994,None,572.9949602060005,None,574.9958771029997,None,575.7449657409998,None,575.9955494819988,None,575.9955494819988,None,d,0,0.43665550199875725,575.9955494819988,None,576.4620987300004,None,576.4620987300004,None,d,0.1781168699999398,576.4620987300004,None,576.6616270150007,None,,,,,sub-11,06/12/2002,2: Female,15/07/2023,002,1: right,2023_Jul_15_1401,[FINAL]_fmri_multiplication,2021.2.3,59.94412955276247
block6.xlsx,293.2,7.5,4.1,4 x 8,28,24,8 x 4 = 28,large-sized_high-interference,large-sized,high-interference,25,IncorrectRESP,d,0,1,1,1,0,21,21,21,,,,,,,,,,,,,,,588.7616428500005,None,589.2626134409984,None,591.2622897469992,None,592.0118835569992,None,592.2627647789996,None,592.2627647789996,None,a,0,0.7614453690002847,592.2627647789996,None,593.0450500890001,None,593.0450500890001,None,d,0.11524840299898642,593.0450500890001,None,593.1785451329997,None,,,,,sub-11,06/12/2002,2: Female,15/07/2023,002,1: right,2023_Jul_15_1401,[FINAL]_fmri_multiplication,2021.2.3,59.94412955276247
block6.xlsx,304.8,7.5,6.7,4 x 4,16,4,4 x 4 = 16,small-sized_low-interference,small-sized,low-interference,5,CorrectRESP,a,0,1,1,1,0,22,22,22,,,,,,,,,,,,,,,597.2792019,None,597.7791789199982,None,599.7791590779998,None,600.5292498499985,None,600.7800077,None,600.7800077,None,d,0,0.34031158200014033,600.7800077,None,601.1453500569987,None,601.1453500569987,None,d,0.16694020700015244,601.1453500569987,None,601.3292807379985,None,,,,,sub-11,06/12/2002,2: Female,15/07/2023,002,1: right,2023_Jul_15_1401,[FINAL]_fmri_multiplication,2021.2.3,59.94412955276247
block6.xlsx,319,7.5,8.5,8 x 5,40,21,5 x 8 = 40,large-sized_high-interference,large-sized,high-interference,9,CorrectRESP,a,0,1,1,1,0,23,23,23,,,,,,,,,,,,,,,608.0288318099992,None,608.5284181919997,None,610.5289864170009,None,611.2788538280001,None,611.5455051579993,None,611.5455051579993,None,d,0,0.4388087490006001,611.5455051579993,None,612.0119548910006,None,612.0119548910006,None,d,0.18836236499919323,612.0119548910006,None,612.2288686169995,None,,,,,sub-11,06/12/2002,2: Female,15/07/2023,002,1: right,2023_Jul_15_1401,[FINAL]_fmri_multiplication,2021.2.3,59.94412955276247
block6.xlsx,,,,,,,,,,,,,,0,1,1,1,,,,,0,0,0,0,,,,,,,,,,,,,,,,,,,,,,,,,,,,,,,,,,,,,,620.7313941,None,620.7313941,None,sub-11,06/12/2002,2: Female,15/07/2023,002,1: right,2023_Jul_15_1401,[FINAL]_fmri_multiplication,2021.2.3,59.94412955276247
block6.xlsx,,,,,,,,,,,,,,0,1,1,1,,,,,1,0,1,0,,,,,,,,,,,,,,,,,,,,,,,,,,,,,,,,,,,,,,621.7468666239984,None,621.7468666239984,None,sub-11,06/12/2002,2: Female,15/07/2023,002,1: right,2023_Jul_15_1401,[FINAL]_fmri_multiplication,2021.2.3,59.94412955276247
block6.xlsx,,,,,,,,,,,,,,0,1,1,1,,,,,2,0,2,0,,,,,,,,,,,,,,,,,,,,,,,,,,,,,,,,,,,,,,622.7456984679993,None,622.7456984679993,None,sub-11,06/12/2002,2: Female,15/07/2023,002,1: right,2023_Jul_15_1401,[FINAL]_fmri_multiplication,2021.2.3,59.94412955276247
block6.xlsx,,,,,,,,,,,,,,0,1,1,1,,,,,3,0,3,0,,,,,,,,,,,,,,,,,,,,,,,,,,,,,,,,,,,,,,623.7461286159996,None,623.7461286159996,None,sub-11,06/12/2002,2: Female,15/07/2023,002,1: right,2023_Jul_15_1401,[FINAL]_fmri_multiplication,2021.2.3,59.94412955276247
block6.xlsx,,,,,,,,,,,,,,0,1,1,1,,,,,4,0,4,0,,,,,,,,,,,,,,,,,,,,,,,,,,,,,,,,,,,,,,624.7463949199991,None,624.7463949199991,None,sub-11,06/12/2002,2: Female,15/07/2023,002,1: right,2023_Jul_15_1401,[FINAL]_fmri_multiplication,2021.2.3,59.94412955276247
block6.xlsx,,,,,,,,,,,,,,0,1,1,1,,,,,5,0,5,0,,,,,,,,,,,,,,,,,,,,,,,,,,,,,,,,,,,,,,625.7471517150007,None,625.7471517150007,None,sub-11,06/12/2002,2: Female,15/07/2023,002,1: right,2023_Jul_15_1401,[FINAL]_fmri_multiplication,2021.2.3,59.94412955276247
block6.xlsx,,,,,,,,,,,,,,0,1,1,1,,,,,6,0,6,0,,,,,,,,,,,,,,,,,,,,,,,,,,,,,,,,,,,,,,626.7456505679984,None,626.7456505679984,None,sub-11,06/12/2002,2: Female,15/07/2023,002,1: right,2023_Jul_15_1401,[FINAL]_fmri_multiplication,2021.2.3,59.94412955276247
block6.xlsx,,,,,,,,,,,,,,0,1,1,1,,,,,7,0,7,0,,,,,,,,,,,,,,,,,,,,,,,,,,,,,,,,,,,,,,627.7479299359984,None,627.7479299359984,None,sub-11,06/12/2002,2: Female,15/07/2023,002,1: right,2023_Jul_15_1401,[FINAL]_fmri_multiplication,2021.2.3,59.94412955276247
block6.xlsx,,,,,,,,,,,,,,0,1,1,1,,,,,8,0,8,0,,,,,,,,,,,,,,,,,,,,,,,,,,,,,,,,,,,,,,628.7458102499986,None,628.7458102499986,None,sub-11,06/12/2002,2: Female,15/07/2023,002,1: right,2023_Jul_15_1401,[FINAL]_fmri_multiplication,2021.2.3,59.94412955276247
block6.xlsx,,,,,,,,,,,,,,0,1,1,1,,,,,9,0,9,0,,,,,,,,,,,,,,,,,,,,,,,,,,,,,,,,,,,,,,629.7460286069982,None,629.7460286069982,None,sub-11,06/12/2002,2: Female,15/07/2023,002,1: right,2023_Jul_15_1401,[FINAL]_fmri_multiplication,2021.2.3,59.94412955276247
block6.xlsx,,,,,,,,,,,,,,0,1,1,1,,,,,10,0,10,0,,,,,,,,,,,,,,,,,,,,,,,,,,,,,,,,,,,,,,630.7351744,None,630.7351744,None,sub-11,06/12/2002,2: Female,15/07/2023,002,1: right,2023_Jul_15_1401,[FINAL]_fmri_multiplication,2021.2.3,59.94412955276247
block6.xlsx,,,,,,,,,,,,,,0,1,1,1,,,,,11,0,11,0,,,,,,,,,,,,,,,,,,,,,,,,,,,,,,,,,,,,,,631.7470588449978,None,631.7470588449978,None,sub-11,06/12/2002,2: Female,15/07/2023,002,1: right,2023_Jul_15_1401,[FINAL]_fmri_multiplication,2021.2.3,59.94412955276247
block6.xlsx,,,,,,,,,,,,,,0,1,1,1,,,,,12,0,12,0,,,,,,,,,,,,,,,,,,,,,,,,,,,,,,,,,,,,,,632.7467293049995,None,632.7467293049995,None,sub-11,06/12/2002,2: Female,15/07/2023,002,1: right,2023_Jul_15_1401,[FINAL]_fmri_multiplication,2021.2.3,59.94412955276247
block6.xlsx,,,,,,,,,,,,,,0,1,1,1,,,,,13,0,13,0,,,,,,,,,,,,,,,,,,,,,,,,,,,,,,,,,,,,,,633.7483873950005,None,633.7483873950005,None,sub-11,06/12/2002,2: Female,15/07/2023,002,1: right,2023_Jul_15_1401,[FINAL]_fmri_multiplication,2021.2.3,59.94412955276247
block6.xlsx,,,,,,,,,,,,,,0,1,1,1,,,,,14,0,14,0,,,,,,,,,,,,,,,,,,,,,,,,,,,,,,,,,,,,,,634.7467187,None,634.7467187,None,sub-11,06/12/2002,2: Female,15/07/2023,002,1: right,2023_Jul_15_1401,[FINAL]_fmri_multiplication,2021.2.3,59.94412955276247
block6.xlsx,,,,,,,,,,,,,,0,1,1,1,,,,,15,0,15,0,,,,,,,,,,,,,,,,,,,,,,,,,,,,,,,,,,,,,,635.7448320459989,None,635.7448320459989,None,sub-11,06/12/2002,2: Female,15/07/2023,002,1: right,2023_Jul_15_1401,[FINAL]_fmri_multiplication,2021.2.3,59.94412955276247
block6.xlsx,,,,,,,,,,,,,,0,1,1,1,,,,,16,0,16,0,,,,,,,,,,,,,,,,,,,,,,,,,,,,,,,,,,,,,,636.7461368,None,636.7461368,None,sub-11,06/12/2002,2: Female,15/07/2023,002,1: right,2023_Jul_15_1401,[FINAL]_fmri_multiplication,2021.2.3,59.94412955276247
block6.xlsx,,,,,,,,,,,,,,0,1,1,1,,,,,17,0,17,0,,,,,,,,,,,,,,,,,,,,,,,,,,,,,,,,,,,,,,637.7483869,None,637.7483869,None,sub-11,06/12/2002,2: Female,15/07/2023,002,1: right,2023_Jul_15_1401,[FINAL]_fmri_multiplication,2021.2.3,59.94412955276247
block6.xlsx,,,,,,,,,,,,,,0,1,1,1,,,,,18,0,18,0,,,,,,,,,,,,,,,,,,,,,,,,,,,,,,,,,,,,,,638.7454563690007,None,638.7454563690007,None,sub-11,06/12/2002,2: Female,15/07/2023,002,1: right,2023_Jul_15_1401,[FINAL]_fmri_multiplication,2021.2.3,59.94412955276247
block6.xlsx,,,,,,,,,,,,,,0,1,1,1,,,,,19,0,19,0,,,,,,,,,,,,,,,,,,,,,,,,,,,,,,,,,,,,,,639.7450094339983,None,639.7450094339983,None,sub-11,06/12/2002,2: Female,15/07/2023,002,1: right,2023_Jul_15_1401,[FINAL]_fmri_multiplication,2021.2.3,59.94412955276247
block6.xlsx,,,,,,,,,,,,,,0,1,1,1,,,,,20,0,20,0,,,,,,,,,,,,,,,,,,,,,,,,,,,,,,,,,,,,,,640.7450326789985,None,640.7450326789985,None,sub-11,06/12/2002,2: Female,15/07/2023,002,1: right,2023_Jul_15_1401,[FINAL]_fmri_multiplication,2021.2.3,59.94412955276247
block6.xlsx,,,,,,,,,,,,,,0,1,1,1,,,,,21,0,21,0,,,,,,,,,,,,,,,,,,,,,,,,,,,,,,,,,,,,,,641.7463199899976,None,641.7463199899976,None,sub-11,06/12/2002,2: Female,15/07/2023,002,1: right,2023_Jul_15_1401,[FINAL]_fmri_multiplication,2021.2.3,59.94412955276247
block6.xlsx,,,,,,,,,,,,,,0,1,1,1,,,,,22,0,22,0,,,,,,,,,,,,,,,,,,,,,,,,,,,,,,,,,,,,,,642.7456822499989,None,642.7456822499989,None,sub-11,06/12/2002,2: Female,15/07/2023,002,1: right,2023_Jul_15_1401,[FINAL]_fmri_multiplication,2021.2.3,59.94412955276247
block6.xlsx,,,,,,,,,,,,,,0,1,1,1,,,,,23,0,23,0,,,,,,,,,,,,,,,,,,,,,,,,,,,,,,,,,,,,,,643.7451545629992,None,643.7451545629992,None,sub-11,06/12/2002,2: Female,15/07/2023,002,1: right,2023_Jul_15_1401,[FINAL]_fmri_multiplication,2021.2.3,59.94412955276247
block6.xlsx,,,,,,,,,,,,,,0,1,1,1,,,,,24,0,24,0,,,,,,,,,,,,,,,,,,,,,,,,,,,,,,,,,,,,,,644.7453349789976,None,644.7453349789976,None,sub-11,06/12/2002,2: Female,15/07/2023,002,1: right,2023_Jul_15_1401,[FINAL]_fmri_multiplication,2021.2.3,59.94412955276247
block6.xlsx,,,,,,,,,,,,,,0,1,1,1,,,,,25,0,25,0,,,,,,,,,,,,,,,,,,,,,,,,,,,,,,,,,,,,,,645.7451851799997,None,645.7451851799997,None,sub-11,06/12/2002,2: Female,15/07/2023,002,1: right,2023_Jul_15_1401,[FINAL]_fmri_multiplication,2021.2.3,59.94412955276247
block6.xlsx,,,,,,,,,,,,,,0,1,1,1,,,,,26,0,26,0,,,,,,,,,,,,,,,,,,,,,,,,,,,,,,,,,,,,,,646.7452179619977,None,646.7452179619977,None,sub-11,06/12/2002,2: Female,15/07/2023,002,1: right,2023_Jul_15_1401,[FINAL]_fmri_multiplication,2021.2.3,59.94412955276247
block6.xlsx,,,,,,,,,,,,,,0,1,1,1,,,,,27,0,27,0,,,,,,,,,,,,,,,,,,,,,,,,,,,,,,,,,,,,,,647.7455466629981,None,647.7455466629981,None,sub-11,06/12/2002,2: Female,15/07/2023,002,1: right,2023_Jul_15_1401,[FINAL]_fmri_multiplication,2021.2.3,59.94412955276247
block6.xlsx,,,,,,,,,,,,,,0,1,1,1,,,,,28,0,28,0,,,,,,,,,,,,,,,,,,,,,,,,,,,,,,,,,,,,,,648.7453052,None,648.7453052,None,sub-11,06/12/2002,2: Female,15/07/2023,002,1: right,2023_Jul_15_1401,[FINAL]_fmri_multiplication,2021.2.3,59.94412955276247
block6.xlsx,,,,,,,,,,,,,,0,1,1,1,,,,,29,0,29,0,,,,,,,,,,,,,,,,,,,,,,,,,,,,,,,,,,,,,,649.7453336110011,None,649.7453336110011,None,sub-11,06/12/2002,2: Female,15/07/2023,002,1: right,2023_Jul_15_1401,[FINAL]_fmri_multiplication,2021.2.3,59.94412955276247
block6.xlsx,,,,,,,,,,,,,,0,1,1,1,,,,,,,,,,,,,,,,,,,,,,,,,,,,,,,,,,,,,,,,,,,,,,,,,,sub-11,06/12/2002,2: Female,15/07/2023,002,1: right,2023_Jul_15_1401,[FINAL]_fmri_multiplication,2021.2.3,59.94412955276247
block7.xlsx,10,7.5,4,2 x 7,14,1,7 x 2 = 14,small-sized_low-interference,small-sized,low-interference,4,CorrectRESP,a,0,2,2,2,0,0,0,0,,,,,,,,,,,,,650.7463866239996,None,660.7708682509983,None,661.2455340699998,None,663.2456368799976,None,663.9951095399992,None,664.2472134319978,None,664.2472134319978,None,d,0,0.32112141999823507,664.2472134319978,None,664.5960941039993,None,664.5960941039993,None,d,0.1961992120013747,664.5960941039993,None,664.8120088119977,None,,,,,sub-11,06/12/2002,2: Female,15/07/2023,002,1: right,2023_Jul_15_1401,[FINAL]_fmri_multiplication,2021.2.3,59.94412955276247
block7.xlsx,21.5,7.5,14.2,3 x 6,15,7,6 x 3 = 15,small-sized_high-interference,small-sized,high-interference,8,IncorrectRESP,d,0,2,2,2,0,1,1,1,,,,,,,,,,,,,,,668.8113153869999,None,669.3125405959981,None,671.3125892989992,None,672.0618566129997,None,672.3123415789996,None,672.3123415789996,None,a,0,0.7439608970016707,672.3123415789996,None,673.0786192089981,None,673.0786192089981,None,d,0.13768269999854965,673.0786192089981,None,673.2457344319992,None,,,,,sub-11,06/12/2002,2: Female,15/07/2023,002,1: right,2023_Jul_15_1401,[FINAL]_fmri_multiplication,2021.2.3,59.94412955276247
block7.xlsx,43.2,7.5,5.1,2 x 7,12,1,7 x 2 = 12,small-sized_low-interference,small-sized,low-interference,4,IncorrectRESP,d,0,2,2,2,0,2,2,2,,,,,,,,,,,,,,,687.4453324770002,None,687.9451209,None,689.9450319620009,None,690.6954516500009,None,690.9470907719988,None,690.9470907719988,None,d,1,0.31711135799923795,690.9470907719988,None,691.2954221569998,None,691.2954221569998,None,d,1.1608457980000821,691.2954221569998,None,692.4783086040006,None,,,,,sub-11,06/12/2002,2: Female,15/07/2023,002,1: right,2023_Jul_15_1401,[FINAL]_fmri_multiplication,2021.2.3,59.94412955276247
block7.xlsx,55.8,7.5,3.4,5 x 9,40,15,9 x 5 = 40,large-sized_low-interference,large-sized,low-interference,6,IncorrectRESP,d,0,2,2,2,0,3,3,3,,,,,,,,,,,,,,,697.5787737739993,None,698.0794368269999,None,700.0791377489986,None,700.8301656,None,701.0810921379998,None,701.0810921379998,None,a,0,1.7271530750003876,701.0810921379998,None,702.8286741480006,None,702.8286741480006,None,d,0.1316388459999871,702.8286741480006,None,702.979207,None,,,,,sub-11,06/12/2002,2: Female,15/07/2023,002,1: right,2023_Jul_15_1401,[FINAL]_fmri_multiplication,2021.2.3,59.94412955276247
block7.xlsx,66.7,7.5,2.9,5 x 5,30,3,5 x 5 = 30,small-sized_low-interference,small-sized,low-interference,3,IncorrectRESP,d,0,2,2,2,0,4,4,4,,,,,,,,,,,,,,,706.3792221359981,None,706.8792482399986,None,708.8792522679978,None,709.6290838,None,709.8787275639988,None,709.8787275639988,None,a,0,0.6415352510011871,709.8787275639988,None,710.5451611919998,None,710.5451611919998,None,d,0.11115093500120565,710.5451611919998,None,710.6782018,None,,,,,sub-11,06/12/2002,2: Female,15/07/2023,002,1: right,2023_Jul_15_1401,[FINAL]_fmri_multiplication,2021.2.3,59.94412955276247
block7.xlsx,77.1,7.5,13.9,5 x 7,40,17,7 x 5 = 40,large-sized_low-interference,large-sized,low-interference,7,IncorrectRESP,d,0,2,2,2,0,5,5,5,,,,,,,,,,,,,,,713.5788280220004,None,714.0787564919992,None,716.0788117,None,716.8288151720008,None,717.0790640470004,None,717.0790640470004,None,a,0,0.6251350300008198,717.0790640470004,None,717.7283861309988,None,717.7283861309988,None,d,0.11181954799758387,717.7283861309988,None,717.8617134089982,None,,,,,sub-11,06/12/2002,2: Female,15/07/2023,002,1: right,2023_Jul_15_1401,[FINAL]_fmri_multiplication,2021.2.3,59.94412955276247
block7.xlsx,98.5,7.5,2.6,2 x 8,16,5,8 x 2 = 16,small-sized_low-interference,small-sized,low-interference,7,CorrectRESP,a,0,2,2,2,0,6,6,6,,,,,,,,,,,,,,,731.7619409199979,None,732.2624046229976,None,734.2624952199985,None,735.0124226900007,None,735.2624971179976,None,735.2624971179976,None,d,0,0.3937648760002048,735.2624971179976,None,735.6842793649994,None,735.6842793649994,None,d,0.17202598299991223,735.6842793649994,None,735.8789031,None,,,,,sub-11,06/12/2002,2: Female,15/07/2023,002,1: right,2023_Jul_15_1401,[FINAL]_fmri_multiplication,2021.2.3,59.94412955276247
block7.xlsx,108.6,7.5,11.6,3 x 6,18,7,6 x 3 = 18,small-sized_high-interference,small-sized,high-interference,8,CorrectRESP,a,0,2,2,2,0,7,7,7,,,,,,,,,,,,,,,738.4792226389982,None,738.9792035030005,None,740.9792603850001,None,741.7291656929992,None,741.9793101449977,None,741.9793101449977,None,d,0,0.5809933509990515,741.9793101449977,None,742.5787288669999,None,742.5787288669999,None,d,0.19755298500240315,742.5787288669999,None,742.7959358,None,,,,,sub-11,06/12/2002,2: Female,15/07/2023,002,1: right,2023_Jul_15_1401,[FINAL]_fmri_multiplication,2021.2.3,59.94412955276247
block7.xlsx,127.7,7.5,5,5 x 5,25,3,5 x 5 = 25,small-sized_low-interference,small-sized,low-interference,3,CorrectRESP,a,0,2,2,2,0,8,8,8,,,,,,,,,,,,,,,754.3950537079982,None,754.8952944,None,756.8956090280008,None,757.6454540279992,None,757.8960818310006,None,757.8960818310006,None,d,0,0.3521225439981208,757.8960818310006,None,758.2786549529992,None,758.2786549529992,None,d,0.17764674800127978,758.2786549529992,None,758.4783281279997,None,,,,,sub-11,06/12/2002,2: Female,15/07/2023,002,1: right,2023_Jul_15_1401,[FINAL]_fmri_multiplication,2021.2.3,59.94412955276247
block7.xlsx,140.2,7.5,2.8,6 x 6,36,13,6 x 6 = 36,large-sized_low-interference,large-sized,low-interference,4,CorrectRESP,a,0,2,2,2,0,9,9,9,,,,,,,,,,,,,,,763.4783242570011,None,763.9784302299995,None,765.9785149390009,None,766.7288900050007,None,766.9784856,None,766.9784856,None,d,0,0.6218274530001509,766.9784856,None,767.6288385939988,None,767.6288385939988,None,d,0.17148295800143387,767.6288385939988,None,767.8290025599999,None,,,,,sub-11,06/12/2002,2: Female,15/07/2023,002,1: right,2023_Jul_15_1401,[FINAL]_fmri_multiplication,2021.2.3,59.94412955276247
block7.xlsx,150.5,7.5,2,3 x 7,21,11,7 x 3 = 21,small-sized_high-interference,small-sized,high-interference,13,CorrectRESP,a,0,2,2,2,0,10,10,10,,,,,,,,,,,,,,,770.6292046019989,None,771.1291892989975,None,773.1292857099979,None,773.8792463719983,None,774.1292585529991,None,774.1292585529991,None,d,0,0.36693971199929365,774.1292585529991,None,774.5286894839992,None,774.5286894839992,None,d,0.1595324800000526,774.5286894839992,None,774.7121733940003,None,,,,,sub-11,06/12/2002,2: Female,15/07/2023,002,1: right,2023_Jul_15_1401,[FINAL]_fmri_multiplication,2021.2.3,59.94412955276247
block7.xlsx,160,7.5,2.7,6 x 7,48,23,7 x 6 = 48,large-sized_high-interference,large-sized,high-interference,22,IncorrectRESP,d,0,2,2,2,0,11,11,11,,,,,,,,,,,,,,,776.7125867609975,None,777.2110962799998,None,779.2124789429981,None,779.9623813510007,None,780.2118711510011,None,780.2118711510011,None,a,0,0.8923208489977696,780.2118711510011,None,781.1284264130009,None,781.1284264130009,None,d,0.13576649699825794,781.1284264130009,None,781.2956022219987,None,,,,,sub-11,06/12/2002,2: Female,15/07/2023,002,1: right,2023_Jul_15_1401,[FINAL]_fmri_multiplication,2021.2.3,59.94412955276247
block7.xlsx,170.2,7.5,7,5 x 7,35,17,7 x 5 = 35,large-sized_low-interference,large-sized,low-interference,7,CorrectRESP,a,0,2,2,2,0,12,12,12,,,,,,,,,,,,,,,783.9955347699979,None,784.4951681089988,None,786.4954921770004,None,787.2447811229977,None,787.4956581589977,None,787.4956581589977,None,d,0,0.38453435100018396,787.4956581589977,None,787.9120579230002,None,787.9120579230002,None,d,0.17614930999843637,787.9120579230002,None,788.1116597449982,None,,,,,sub-11,06/12/2002,2: Female,15/07/2023,002,1: right,2023_Jul_15_1401,[FINAL]_fmri_multiplication,2021.2.3,59.94412955276247
block7.xlsx,184.7,7.5,3,3 x 9,27,19,9 x 3 = 27,large-sized_high-interference,large-sized,high-interference,9,CorrectRESP,a,0,2,2,2,0,13,13,13,,,,,,,,,,,,,,,795.1121117939983,None,795.6119712920008,None,797.6121941,None,798.3618896009975,None,798.6125580939988,None,798.6125580939988,None,d,0,0.5396708480002417,798.6125580939988,None,799.1780114309986,None,799.1780114309986,None,d,0.1823046739991696,799.1780114309986,None,799.3782564569992,None,,,,,sub-11,06/12/2002,2: Female,15/07/2023,002,1: right,2023_Jul_15_1401,[FINAL]_fmri_multiplication,2021.2.3,59.94412955276247
block7.xlsx,195.2,7.5,7.1,4 x 3,15,9,3 x 4 = 15,small-sized_high-interference,small-sized,high-interference,10,IncorrectRESP,d,0,2,2,2,0,14,14,14,,,,,,,,,,,,,,,802.3784274190002,None,802.8788780789982,None,804.8791284090003,None,805.6293496769977,None,805.8952746369978,None,805.8952746369978,None,a,0,0.7369039449986303,805.8952746369978,None,806.6626729460004,None,806.6626729460004,None,d,0.1056415310013108,806.6626729460004,None,806.7956176509979,None,,,,,sub-11,06/12/2002,2: Female,15/07/2023,002,1: right,2023_Jul_15_1401,[FINAL]_fmri_multiplication,2021.2.3,59.94412955276247
block7.xlsx,209.8,7.5,3.9,2 x 8,18,5,8 x 2 = 18,small-sized_low-interference,small-sized,low-interference,7,IncorrectRESP,d,0,2,2,2,0,15,15,15,,,,,,,,,,,,,,,813.8951995290008,None,814.3956193269987,None,816.3953730559988,None,817.1455836309979,None,817.3950809950002,None,817.3950809950002,None,a,0,0.5731690549982886,817.3950809950002,None,817.9935873369977,None,817.9935873369977,None,d,0.086596491,817.9935873369977,None,818.1108744409976,None,,,,,sub-11,06/12/2002,2: Female,15/07/2023,002,1: right,2023_Jul_15_1401,[FINAL]_fmri_multiplication,2021.2.3,59.94412955276247
block7.xlsx,221.2,7.5,13.2,8 x 5,40,21,5 x 8 = 40,large-sized_high-interference,large-sized,high-interference,9,CorrectRESP,a,0,2,2,2,0,16,16,16,,,,,,,,,,,,,,,822.0121638,None,822.5122526790001,None,824.5120770369977,None,825.2623048389978,None,825.5126257169977,None,825.5126257169977,None,d,0,0.3915838430002623,825.5126257169977,None,825.9284070309986,None,825.9284070309986,None,d,0.5438379699990037,825.9284070309986,None,826.4950959,None,,,,,sub-11,06/12/2002,2: Female,15/07/2023,002,1: right,2023_Jul_15_1401,[FINAL]_fmri_multiplication,2021.2.3,59.94412955276247
block7.xlsx,241.9,7.5,8.7,3 x 7,24,11,7 x 3 = 24,small-sized_high-interference,small-sized,high-interference,13,IncorrectRESP,d,0,2,2,2,0,17,17,17,,,,,,,,,,,,,,,839.6957148389993,None,840.1956900199984,None,842.1928793,None,842.9455823159988,None,843.1961994779995,None,843.1961994779995,None,a,0,0.48401050999746076,843.1961994779995,None,843.7127104370011,None,843.7127104370011,None,d,0.13549100999807706,843.7127104370011,None,843.8794989,None,,,,,sub-11,06/12/2002,2: Female,15/07/2023,002,1: right,2023_Jul_15_1401,[FINAL]_fmri_multiplication,2021.2.3,59.94412955276247
block7.xlsx,258.1,7.5,8.1,6 x 6,30,13,6 x 6 = 30,large-sized_low-interference,large-sized,low-interference,4,IncorrectRESP,d,0,2,2,2,0,18,18,18,,,,,,,,,,,,,,,852.5786761700001,None,853.0788170070009,None,855.0790894819984,None,855.8290968,None,856.0787780690007,None,856.0787780690007,None,a,0,0.5454425559983065,856.0787780690007,None,856.6450138,None,856.6450138,None,d,0.1153116730019974,856.6450138,None,856.7783077179993,None,,,,,sub-11,06/12/2002,2: Female,15/07/2023,002,1: right,2023_Jul_15_1401,[FINAL]_fmri_multiplication,2021.2.3,59.94412955276247
block7.xlsx,273.7,7.5,8.2,8 x 5,45,21,5 x 8 = 45,large-sized_high-interference,large-sized,high-interference,9,IncorrectRESP,d,0,2,2,2,0,19,19,19,,,,,,,,,,,,,,,864.8788535879976,None,865.3786878690007,None,867.3784757129979,None,868.1288458550007,None,868.3798379,None,868.3798379,None,a,0,0.4603936019993853,868.3798379,None,868.8627849250006,None,868.8627849250006,None,d,0.097603438,868.8627849250006,None,868.9784051629977,None,,,,,sub-11,06/12/2002,2: Female,15/07/2023,002,1: right,2023_Jul_15_1401,[FINAL]_fmri_multiplication,2021.2.3,59.94412955276247
block7.xlsx,289.4,7.5,5.5,4 x 3,12,9,3 x 4 = 12,small-sized_high-interference,small-sized,high-interference,10,CorrectRESP,a,0,2,2,2,0,20,20,20,,,,,,,,,,,,,,,877.1789264340005,None,877.6793485569979,None,879.6792704039981,None,880.4292654439996,None,880.6797182599985,None,880.6797182599985,None,d,0,0.32060162400011905,880.6797182599985,None,881.0278896640011,None,881.0278896640011,None,d,0.17239455499657197,881.0278896640011,None,881.2287877300005,None,,,,,sub-11,06/12/2002,2: Female,15/07/2023,002,1: right,2023_Jul_15_1401,[FINAL]_fmri_multiplication,2021.2.3,59.94412955276247
block7.xlsx,302.4,7.5,4.8,3 x 9,24,19,9 x 3 = 24,large-sized_high-interference,large-sized,high-interference,9,IncorrectRESP,d,0,2,2,2,0,21,21,21,,,,,,,,,,,,,,,886.7289132820006,None,887.2286218909976,None,889.2285057709996,None,889.9781663,None,890.2287390849997,None,890.2287390849997,None,a,0,0.48349572400184115,890.2287390849997,None,890.7289365,None,890.7289365,None,d,0.16724899600012577,890.7289365,None,890.9288059649989,None,,,,,sub-11,06/12/2002,2: Female,15/07/2023,002,1: right,2023_Jul_15_1401,[FINAL]_fmri_multiplication,2021.2.3,59.94412955276247
block7.xlsx,314.7,7.5,2.5,5 x 9,45,15,9 x 5 = 45,large-sized_low-interference,large-sized,low-interference,6,CorrectRESP,a,0,2,2,2,0,22,22,22,,,,,,,,,,,,,,,895.7288545279989,None,896.2289053249988,None,898.2289584579994,None,898.9788018649997,None,899.2289840749982,None,899.2289840749982,None,d,0,0.4032171949984331,899.2289840749982,None,899.6622870840001,None,899.6622870840001,None,d,0.15396557799977018,899.6622870840001,None,899.8454971619976,None,,,,,sub-11,06/12/2002,2: Female,15/07/2023,002,1: right,2023_Jul_15_1401,[FINAL]_fmri_multiplication,2021.2.3,59.94412955276247
block7.xlsx,324.7,7.5,2.8,6 x 7,42,23,7 x 6 = 42,large-sized_high-interference,large-sized,high-interference,22,CorrectRESP,a,0,2,2,2,0,23,23,23,,,,,,,,,,,,,,,902.3450244119995,None,902.8455699500009,None,904.8455525120007,None,905.5954120919996,None,905.8449578769978,None,905.8449578769978,None,a,1,0.6432647629990242,905.8449578769978,None,906.5117283569998,None,906.5117283569998,None,d,0.14449703200079966,906.5117283569998,None,906.6783753069976,None,,,,,sub-11,06/12/2002,2: Female,15/07/2023,002,1: right,2023_Jul_15_1401,[FINAL]_fmri_multiplication,2021.2.3,59.94412955276247
block7.xlsx,,,,,,,,,,,,,,0,2,2,2,,,,,0,0,0,0,,,,,,,,,,,,,,,,,,,,,,,,,,,,,,,,,,,,,,909.4799888189991,None,909.4799888189991,None,sub-11,06/12/2002,2: Female,15/07/2023,002,1: right,2023_Jul_15_1401,[FINAL]_fmri_multiplication,2021.2.3,59.94412955276247
block7.xlsx,,,,,,,,,,,,,,0,2,2,2,,,,,1,0,1,0,,,,,,,,,,,,,,,,,,,,,,,,,,,,,,,,,,,,,,910.4797560890001,910.4797560890001,910.4797560890001,910.4797560890001,sub-11,06/12/2002,2: Female,15/07/2023,002,1: right,2023_Jul_15_1401,[FINAL]_fmri_multiplication,2021.2.3,59.94412955276247
block7.xlsx,,,,,,,,,,,,,,0,2,2,2,,,,,2,0,2,0,,,,,,,,,,,,,,,,,,,,,,,,,,,,,,,,,,,,,,911.4840822709994,None,911.4840822709994,None,sub-11,06/12/2002,2: Female,15/07/2023,002,1: right,2023_Jul_15_1401,[FINAL]_fmri_multiplication,2021.2.3,59.94412955276247
block7.xlsx,,,,,,,,,,,,,,0,2,2,2,,,,,3,0,3,0,,,,,,,,,,,,,,,,,,,,,,,,,,,,,,,,,,,,,,912.4983425459977,None,912.4983425459977,None,sub-11,06/12/2002,2: Female,15/07/2023,002,1: right,2023_Jul_15_1401,[FINAL]_fmri_multiplication,2021.2.3,59.94412955276247
block7.xlsx,,,,,,,,,,,,,,0,2,2,2,,,,,4,0,4,0,,,,,,,,,,,,,,,,,,,,,,,,,,,,,,,,,,,,,,913.4974384529996,None,913.4974384529996,None,sub-11,06/12/2002,2: Female,15/07/2023,002,1: right,2023_Jul_15_1401,[FINAL]_fmri_multiplication,2021.2.3,59.94412955276247
block7.xlsx,,,,,,,,,,,,,,0,2,2,2,,,,,5,0,5,0,,,,,,,,,,,,,,,,,,,,,,,,,,,,,,,,,,,,,,914.4982940509981,None,914.4982940509981,None,sub-11,06/12/2002,2: Female,15/07/2023,002,1: right,2023_Jul_15_1401,[FINAL]_fmri_multiplication,2021.2.3,59.94412955276247
block7.xlsx,,,,,,,,,,,,,,0,2,2,2,,,,,6,0,6,0,,,,,,,,,,,,,,,,,,,,,,,,,,,,,,,,,,,,,,915.4975907029984,None,915.4975907029984,None,sub-11,06/12/2002,2: Female,15/07/2023,002,1: right,2023_Jul_15_1401,[FINAL]_fmri_multiplication,2021.2.3,59.94412955276247
block7.xlsx,,,,,,,,,,,,,,0,2,2,2,,,,,7,0,7,0,,,,,,,,,,,,,,,,,,,,,,,,,,,,,,,,,,,,,,916.4968197729977,None,916.4968197729977,None,sub-11,06/12/2002,2: Female,15/07/2023,002,1: right,2023_Jul_15_1401,[FINAL]_fmri_multiplication,2021.2.3,59.94412955276247
block7.xlsx,,,,,,,,,,,,,,0,2,2,2,,,,,8,0,8,0,,,,,,,,,,,,,,,,,,,,,,,,,,,,,,,,,,,,,,917.4962585180001,None,917.4962585180001,None,sub-11,06/12/2002,2: Female,15/07/2023,002,1: right,2023_Jul_15_1401,[FINAL]_fmri_multiplication,2021.2.3,59.94412955276247
block7.xlsx,,,,,,,,,,,,,,0,2,2,2,,,,,9,0,9,0,,,,,,,,,,,,,,,,,,,,,,,,,,,,,,,,,,,,,,918.4976605579977,None,918.4976605579977,None,sub-11,06/12/2002,2: Female,15/07/2023,002,1: right,2023_Jul_15_1401,[FINAL]_fmri_multiplication,2021.2.3,59.94412955276247
block7.xlsx,,,,,,,,,,,,,,0,2,2,2,,,,,10,0,10,0,,,,,,,,,,,,,,,,,,,,,,,,,,,,,,,,,,,,,,919.4947796369997,None,919.4947796369997,None,sub-11,06/12/2002,2: Female,15/07/2023,002,1: right,2023_Jul_15_1401,[FINAL]_fmri_multiplication,2021.2.3,59.94412955276247
block7.xlsx,,,,,,,,,,,,,,0,2,2,2,,,,,11,0,11,0,,,,,,,,,,,,,,,,,,,,,,,,,,,,,,,,,,,,,,920.4949734789989,None,920.4949734789989,None,sub-11,06/12/2002,2: Female,15/07/2023,002,1: right,2023_Jul_15_1401,[FINAL]_fmri_multiplication,2021.2.3,59.94412955276247
block7.xlsx,,,,,,,,,,,,,,0,2,2,2,,,,,12,0,12,0,,,,,,,,,,,,,,,,,,,,,,,,,,,,,,,,,,,,,,921.4955829690007,None,921.4955829690007,None,sub-11,06/12/2002,2: Female,15/07/2023,002,1: right,2023_Jul_15_1401,[FINAL]_fmri_multiplication,2021.2.3,59.94412955276247
block7.xlsx,,,,,,,,,,,,,,0,2,2,2,,,,,13,0,13,0,,,,,,,,,,,,,,,,,,,,,,,,,,,,,,,,,,,,,,922.4965974119987,None,922.4965974119987,None,sub-11,06/12/2002,2: Female,15/07/2023,002,1: right,2023_Jul_15_1401,[FINAL]_fmri_multiplication,2021.2.3,59.94412955276247
block7.xlsx,,,,,,,,,,,,,,0,2,2,2,,,,,14,0,14,0,,,,,,,,,,,,,,,,,,,,,,,,,,,,,,,,,,,,,,923.4953274740001,None,923.4953274740001,None,sub-11,06/12/2002,2: Female,15/07/2023,002,1: right,2023_Jul_15_1401,[FINAL]_fmri_multiplication,2021.2.3,59.94412955276247
block7.xlsx,,,,,,,,,,,,,,0,2,2,2,,,,,15,0,15,0,,,,,,,,,,,,,,,,,,,,,,,,,,,,,,,,,,,,,,924.4940834459994,None,924.4940834459994,None,sub-11,06/12/2002,2: Female,15/07/2023,002,1: right,2023_Jul_15_1401,[FINAL]_fmri_multiplication,2021.2.3,59.94412955276247
block7.xlsx,,,,,,,,,,,,,,0,2,2,2,,,,,16,0,16,0,,,,,,,,,,,,,,,,,,,,,,,,,,,,,,,,,,,,,,925.4960479,None,925.4960479,None,sub-11,06/12/2002,2: Female,15/07/2023,002,1: right,2023_Jul_15_1401,[FINAL]_fmri_multiplication,2021.2.3,59.94412955276247
block7.xlsx,,,,,,,,,,,,,,0,2,2,2,,,,,17,0,17,0,,,,,,,,,,,,,,,,,,,,,,,,,,,,,,,,,,,,,,926.4961288429986,None,926.4961288429986,None,sub-11,06/12/2002,2: Female,15/07/2023,002,1: right,2023_Jul_15_1401,[FINAL]_fmri_multiplication,2021.2.3,59.94412955276247
block7.xlsx,,,,,,,,,,,,,,0,2,2,2,,,,,18,0,18,0,,,,,,,,,,,,,,,,,,,,,,,,,,,,,,,,,,,,,,927.4971179229979,None,927.4971179229979,None,sub-11,06/12/2002,2: Female,15/07/2023,002,1: right,2023_Jul_15_1401,[FINAL]_fmri_multiplication,2021.2.3,59.94412955276247
block7.xlsx,,,,,,,,,,,,,,0,2,2,2,,,,,19,0,19,0,,,,,,,,,,,,,,,,,,,,,,,,,,,,,,,,,,,,,,928.4969309699991,None,928.4969309699991,None,sub-11,06/12/2002,2: Female,15/07/2023,002,1: right,2023_Jul_15_1401,[FINAL]_fmri_multiplication,2021.2.3,59.94412955276247
block7.xlsx,,,,,,,,,,,,,,0,2,2,2,,,,,20,0,20,0,,,,,,,,,,,,,,,,,,,,,,,,,,,,,,,,,,,,,,929.5095007,None,929.5095007,None,sub-11,06/12/2002,2: Female,15/07/2023,002,1: right,2023_Jul_15_1401,[FINAL]_fmri_multiplication,2021.2.3,59.94412955276247
block7.xlsx,,,,,,,,,,,,,,0,2,2,2,,,,,21,0,21,0,,,,,,,,,,,,,,,,,,,,,,,,,,,,,,,,,,,,,,930.4956332969996,None,930.4956332969996,None,sub-11,06/12/2002,2: Female,15/07/2023,002,1: right,2023_Jul_15_1401,[FINAL]_fmri_multiplication,2021.2.3,59.94412955276247
block7.xlsx,,,,,,,,,,,,,,0,2,2,2,,,,,22,0,22,0,,,,,,,,,,,,,,,,,,,,,,,,,,,,,,,,,,,,,,931.4957620870009,None,931.4957620870009,None,sub-11,06/12/2002,2: Female,15/07/2023,002,1: right,2023_Jul_15_1401,[FINAL]_fmri_multiplication,2021.2.3,59.94412955276247
block7.xlsx,,,,,,,,,,,,,,0,2,2,2,,,,,23,0,23,0,,,,,,,,,,,,,,,,,,,,,,,,,,,,,,,,,,,,,,932.4959030149985,None,932.4959030149985,None,sub-11,06/12/2002,2: Female,15/07/2023,002,1: right,2023_Jul_15_1401,[FINAL]_fmri_multiplication,2021.2.3,59.94412955276247
block7.xlsx,,,,,,,,,,,,,,0,2,2,2,,,,,24,0,24,0,,,,,,,,,,,,,,,,,,,,,,,,,,,,,,,,,,,,,,933.4957138409991,None,933.4957138409991,None,sub-11,06/12/2002,2: Female,15/07/2023,002,1: right,2023_Jul_15_1401,[FINAL]_fmri_multiplication,2021.2.3,59.94412955276247
block7.xlsx,,,,,,,,,,,,,,0,2,2,2,,,,,25,0,25,0,,,,,,,,,,,,,,,,,,,,,,,,,,,,,,,,,,,,,,934.4955859010006,None,934.4955859010006,None,sub-11,06/12/2002,2: Female,15/07/2023,002,1: right,2023_Jul_15_1401,[FINAL]_fmri_multiplication,2021.2.3,59.94412955276247
block7.xlsx,,,,,,,,,,,,,,0,2,2,2,,,,,26,0,26,0,,,,,,,,,,,,,,,,,,,,,,,,,,,,,,,,,,,,,,935.4956671309992,None,935.4956671309992,None,sub-11,06/12/2002,2: Female,15/07/2023,002,1: right,2023_Jul_15_1401,[FINAL]_fmri_multiplication,2021.2.3,59.94412955276247
block7.xlsx,,,,,,,,,,,,,,0,2,2,2,,,,,27,0,27,0,,,,,,,,,,,,,,,,,,,,,,,,,,,,,,,,,,,,,,936.4956641989993,None,936.4956641989993,None,sub-11,06/12/2002,2: Female,15/07/2023,002,1: right,2023_Jul_15_1401,[FINAL]_fmri_multiplication,2021.2.3,59.94412955276247
block7.xlsx,,,,,,,,,,,,,,0,2,2,2,,,,,28,0,28,0,,,,,,,,,,,,,,,,,,,,,,,,,,,,,,,,,,,,,,937.4953296790009,None,937.4953296790009,None,sub-11,06/12/2002,2: Female,15/07/2023,002,1: right,2023_Jul_15_1401,[FINAL]_fmri_multiplication,2021.2.3,59.94412955276247
block7.xlsx,,,,,,,,,,,,,,0,2,2,2,,,,,29,0,29,0,,,,,,,,,,,,,,,,,,,,,,,,,,,,,,,,,,,,,,938.4955525,None,938.4955525,None,sub-11,06/12/2002,2: Female,15/07/2023,002,1: right,2023_Jul_15_1401,[FINAL]_fmri_multiplication,2021.2.3,59.94412955276247
block7.xlsx,,,,,,,,,,,,,,0,2,2,2,,,,,,,,,,,,,,,,,,,,,,,,,,,,,,,,,,,,,,,,,,,,,,,,,,sub-11,06/12/2002,2: Female,15/07/2023,002,1: right,2023_Jul_15_1401,[FINAL]_fmri_multiplication,2021.2.3,59.94412955276247
block8.xlsx,10,7.5,4.2,9 x 9,81,16,9 x 9 = 81,large-sized_low-interference,large-sized,low-interference,6,CorrectRESP,a,0,3,3,3,0,0,0,0,,,,,,,,,,,,,939.4967659559989,None,949.5208523069996,None,949.9960927829998,None,951.9955575550011,None,952.7459031969993,None,952.9961212849994,None,952.9961212849994,None,d,0,0.3401928899984341,952.9961212849994,None,953.3619542339984,None,953.3619542339984,None,d,0.1743046650008182,953.3619542339984,None,953.5623833530008,None,,,,,sub-11,06/12/2002,2: Female,15/07/2023,002,1: right,2023_Jul_15_1401,[FINAL]_fmri_multiplication,2021.2.3,59.94412955276247
block8.xlsx,21.7,7.5,5.5,5 x 4,20,8,4 x 5 = 20,small-sized_high-interference,small-sized,high-interference,8,CorrectRESP,a,0,3,3,3,0,1,1,1,,,,,,,,,,,,,,,957.7622747139976,None,958.2620963379995,None,960.2623436670001,None,961.0122779720004,None,961.2620765020001,None,961.2620765020001,None,d,0,0.37813248000020394,961.2620765020001,None,961.6616748019987,None,961.6616748019987,None,d,0.18653169199751574,961.6616748019987,None,961.878916,None,,,,,sub-11,06/12/2002,2: Female,15/07/2023,002,1: right,2023_Jul_15_1401,[FINAL]_fmri_multiplication,2021.2.3,59.94412955276247
block8.xlsx,34.7,7.5,13.5,9 x 4,32,20,4 x 9 = 32,large-sized_high-interference,large-sized,high-interference,9,IncorrectRESP,d,0,3,3,3,0,2,2,2,,,,,,,,,,,,,,,967.3788201159987,None,967.8794168239983,None,969.8789701259993,None,970.6278830470001,None,970.8791788560011,None,970.8791788560011,None,a,0,1.0170334999966144,970.8791788560011,None,971.9287284329985,None,971.9287284329985,None,d,0.1354814639998949,971.9287284329985,None,972.0956610110006,None,,,,,sub-11,06/12/2002,2: Female,15/07/2023,002,1: right,2023_Jul_15_1401,[FINAL]_fmri_multiplication,2021.2.3,59.94412955276247
block8.xlsx,55.7,7.5,3.1,4 x 6,24,10,6 x 4 = 24,small-sized_high-interference,small-sized,high-interference,12,CorrectRESP,a,0,3,3,3,0,3,3,3,,,,,,,,,,,,,,,985.5954952459979,None,986.0981052839998,None,988.1126385559983,None,988.8626400600006,None,989.1124779569982,None,989.1124779569982,None,d,0,0.6957641600019997,989.1124779569982,None,989.8286601420004,None,989.8286601420004,None,d,0.20355352700062213,989.8286601420004,None,990.0625108739987,None,,,,,sub-11,06/12/2002,2: Female,15/07/2023,002,1: right,2023_Jul_15_1401,[FINAL]_fmri_multiplication,2021.2.3,59.94412955276247
block8.xlsx,66.3,7.5,7.7,2 x 6,10,6,6 x 2 = 10,small-sized_low-interference,small-sized,low-interference,3,IncorrectRESP,d,0,3,3,3,0,4,4,4,,,,,,,,,,,,,,,993.1616652199991,None,993.6618792070003,None,995.6624575589994,None,996.4117567329995,None,996.6624618309979,None,996.6624618309979,None,a,0,0.6017319509992376,996.6624618309979,None,997.2960973089976,None,997.2960973089976,None,d,0.088216668,997.2960973089976,None,997.4121606629997,None,,,,,sub-11,06/12/2002,2: Female,15/07/2023,002,1: right,2023_Jul_15_1401,[FINAL]_fmri_multiplication,2021.2.3,59.94412955276247
block8.xlsx,81.5,7.5,6.9,7 x 7,49,18,7 x 7 = 49,large-sized_low-interference,large-sized,low-interference,7,CorrectRESP,a,0,3,3,3,0,5,5,5,,,,,,,,,,,,,,,1005.1122197820005,None,1005.6117403899989,None,1007.6120580319985,None,1008.3621168399986,None,1008.6125232519989,None,1008.6125232519989,None,d,0,0.4996669060019485,1008.6125232519989,None,1009.1290335480007,None,1009.1290335480007,None,d,0.5831878220014914,1009.1290335480007,None,1009.7453229179991,None,,,,,sub-11,06/12/2002,2: Female,15/07/2023,002,1: right,2023_Jul_15_1401,[FINAL]_fmri_multiplication,2021.2.3,59.94412955276247
block8.xlsx,95.9,7.5,12.3,2 x 6,12,6,6 x 2 = 12,small-sized_low-interference,small-sized,low-interference,3,CorrectRESP,a,0,3,3,3,0,6,6,6,,,,,,,,,,,,,,,1016.6490508909992,None,1017.1503513339994,None,1019.1626629929997,None,1019.9125720429984,None,1020.1624190109978,None,1020.1624190109978,None,d,0,0.4778462899994338,1020.1624190109978,None,1020.661955429001,None,1020.661955429001,None,d,0.17827910000050906,1020.661955429001,None,1020.8621302069987,None,,,,,sub-11,06/12/2002,2: Female,15/07/2023,002,1: right,2023_Jul_15_1401,[FINAL]_fmri_multiplication,2021.2.3,59.94412955276247
block8.xlsx,115.7,7.5,2.7,7 x 8,63,22,8 x 7 = 63,large-sized_high-interference,large-sized,high-interference,9,IncorrectRESP,d,0,3,3,3,0,7,7,7,,,,,,,,,,,,,,,1033.1621090890003,None,1033.6623184249984,None,1035.6621467170007,None,1036.4121444819975,None,1036.6623240400004,None,1036.6623240400004,None,d,1,1.3059241770024528,1036.6623240400004,None,1037.99536,None,1037.99536,None,d,0.23683005299972137,1037.99536,None,1038.262244614998,None,,,,,sub-11,06/12/2002,2: Female,15/07/2023,002,1: right,2023_Jul_15_1401,[FINAL]_fmri_multiplication,2021.2.3,59.94412955276247
block8.xlsx,125.9,7.5,7.8,9 x 2,16,2,2 x 9 = 16,small-sized_low-interference,small-sized,low-interference,7,IncorrectRESP,d,0,3,3,3,0,8,8,8,,,,,,,,,,,,,,,1040.9615956599991,None,1041.4630194370002,None,1043.4620638439992,None,1044.2121854709985,None,1044.4637414690005,None,1044.4637414690005,None,a,0,0.5925679300016782,1044.4637414690005,None,1045.0783303610006,None,1045.0783303610006,None,d,0.10591379700053949,1045.0783303610006,None,1045.2116995809993,None,,,,,sub-11,06/12/2002,2: Female,15/07/2023,002,1: right,2023_Jul_15_1401,[FINAL]_fmri_multiplication,2021.2.3,59.94412955276247
block8.xlsx,141.2,7.5,2.9,8 x 3,24,12,3 x 8 = 24,small-sized_high-interference,small-sized,high-interference,13,CorrectRESP,a,0,3,3,3,0,9,9,9,,,,,,,,,,,,,,,1053.0126408059987,None,1053.5127270699995,None,1055.512557203001,None,1056.2625616229998,None,1056.5140918549987,None,1056.5140918549987,None,d,0,0.4862160730008327,1056.5140918549987,None,1057.0279268800005,None,1057.0279268800005,None,d,0.18029207599829533,1057.0279268800005,None,1057.2287711530007,None,,,,,sub-11,06/12/2002,2: Female,15/07/2023,002,1: right,2023_Jul_15_1401,[FINAL]_fmri_multiplication,2021.2.3,59.94412955276247
block8.xlsx,151.6,7.5,2,4 x 8,32,24,8 x 4 = 32,large-sized_high-interference,large-sized,high-interference,25,CorrectRESP,a,0,3,3,3,0,10,10,10,,,,,,,,,,,,,,,1060.1291736700005,None,1060.6287582730001,None,1062.628928,None,1063.3794683289998,None,1063.628739167998,None,1063.628739167998,None,d,0,1.2434785250006826,1063.628739167998,None,1064.895242284998,None,1064.895242284998,None,d,0.1849574070001836,1064.895242284998,None,1065.1120631669983,None,,,,,sub-11,06/12/2002,2: Female,15/07/2023,002,1: right,2023_Jul_15_1401,[FINAL]_fmri_multiplication,2021.2.3,59.94412955276247
block8.xlsx,161.1,7.5,13.1,9 x 9,72,16,9 x 9 = 72,large-sized_low-interference,large-sized,low-interference,6,IncorrectRESP,d,0,3,3,3,0,11,11,11,,,,,,,,,,,,,,,1067.1121080939993,None,1067.612084051998,None,1069.6122125990005,None,1070.3620905219977,None,1070.612480945998,None,1070.612480945998,None,a,0,0.5558300220000092,1070.612480945998,None,1071.1951349919982,None,1071.1951349919982,None,d,0.16517411799941328,1071.1951349919982,None,1071.3783885859993,None,,,,,sub-11,06/12/2002,2: Female,15/07/2023,002,1: right,2023_Jul_15_1401,[FINAL]_fmri_multiplication,2021.2.3,59.94412955276247
block8.xlsx,181.7,7.5,2.4,5 x 4,16,8,4 x 5 = 16,small-sized_high-interference,small-sized,high-interference,8,IncorrectRESP,d,0,3,3,3,0,12,12,12,,,,,,,,,,,,,,,1084.4789766350004,None,1084.9786355529977,None,1086.9864221079988,None,1087.7448167039984,None,1087.9967927270009,None,1087.9967927270009,None,a,0,0.5315060300017649,1087.9967927270009,None,1088.545004751999,None,1088.545004751999,None,d,0.12722565500007477,1088.545004751999,None,1088.693452110001,None,,,,,sub-11,06/12/2002,2: Female,15/07/2023,002,1: right,2023_Jul_15_1401,[FINAL]_fmri_multiplication,2021.2.3,59.94412955276247
block8.xlsx,191.6,7.5,5.7,7 x 7,56,18,7 x 7 = 56,large-sized_low-interference,large-sized,low-interference,7,IncorrectRESP,d,0,3,3,3,0,13,13,13,,,,,,,,,,,,,,,1091.0960426899983,None,1091.5958892140006,None,1093.5958370939989,None,1094.3459057639993,None,1094.5955964799978,None,1094.5955964799978,None,a,0,1.2207158919991343,1094.5955964799978,None,1095.8455992889976,None,1095.8455992889976,None,d,0.10673223500270979,1095.8455992889976,None,1095.9782936249976,None,,,,,sub-11,06/12/2002,2: Female,15/07/2023,002,1: right,2023_Jul_15_1401,[FINAL]_fmri_multiplication,2021.2.3,59.94412955276247
block8.xlsx,204.8,7.5,2.2,9 x 2,18,2,2 x 9 = 18,small-sized_low-interference,small-sized,low-interference,7,CorrectRESP,a,0,3,3,3,0,14,14,14,,,,,,,,,,,,,,,1101.679062168998,None,1102.178531065998,None,1104.1789024190002,None,1104.928853854999,None,1105.1789763909983,None,1105.1789763909983,None,d,0,0.4612436940005864,1105.1789763909983,None,1105.6617228049981,None,1105.6617228049981,None,d,0.19457164399864268,1105.6617228049981,None,1105.878384,None,,,,,sub-11,06/12/2002,2: Female,15/07/2023,002,1: right,2023_Jul_15_1401,[FINAL]_fmri_multiplication,2021.2.3,59.94412955276247
block8.xlsx,214.5,7.5,5.2,8 x 3,21,12,3 x 8 = 21,small-sized_high-interference,small-sized,high-interference,13,IncorrectRESP,d,0,3,3,3,0,15,15,15,,,,,,,,,,,,,,,1108.0790009730008,None,1108.5787239989986,None,1110.578689777998,None,1111.3283504749998,None,1111.5774007029977,None,1111.5774007029977,None,a,0,1.278913255999214,1111.5774007029977,None,1112.8783719870007,None,1112.8783719870007,None,d,0.21786382500067702,1112.8783719870007,None,1113.128779114999,None,,,,,sub-11,06/12/2002,2: Female,15/07/2023,002,1: right,2023_Jul_15_1401,[FINAL]_fmri_multiplication,2021.2.3,59.94412955276247
block8.xlsx,227.2,7.5,3.8,4 x 4,20,4,4 x 4 = 20,small-sized_low-interference,small-sized,low-interference,5,IncorrectRESP,d,0,3,3,3,0,16,16,16,,,,,,,,,,,,,,,1118.3288695570009,None,1118.828701964001,None,1120.8290433090006,None,1121.5790323289984,None,1121.8294298990004,None,1121.8294298990004,None,a,0,1.2908734160009772,1121.8294298990004,None,1123.1452553739982,None,1123.1452553739982,None,d,0.4470296200015582,1123.1452553739982,None,1123.6121180070004,None,,,,,sub-11,06/12/2002,2: Female,15/07/2023,002,1: right,2023_Jul_15_1401,[FINAL]_fmri_multiplication,2021.2.3,59.94412955276247
block8.xlsx,238.5,7.5,2,4 x 6,28,10,6 x 4 = 28,small-sized_high-interference,small-sized,high-interference,12,IncorrectRESP,d,0,3,3,3,0,17,17,17,,,,,,,,,,,,,,,1127.4126198509985,None,1127.9126445389993,None,1129.9127072359988,None,1130.662452960998,None,1130.9132592759997,None,1130.9132592759997,None,a,0,0.5669688820016745,1130.9132592759997,None,1131.512158966998,None,1131.512158966998,None,d,0.12005715600025724,1131.512158966998,None,1131.6622793749993,None,,,,,sub-11,06/12/2002,2: Female,15/07/2023,002,1: right,2023_Jul_15_1401,[FINAL]_fmri_multiplication,2021.2.3,59.94412955276247
block8.xlsx,248,7.5,4,6 x 5,30,14,5 x 6 = 30,large-sized_low-interference,large-sized,low-interference,6,CorrectRESP,a,0,3,3,3,0,18,18,18,,,,,,,,,,,,,,,1133.6620244469996,None,1134.1618170420006,None,1136.161550667999,None,1136.9122873779997,None,1137.1618504430007,None,1137.1618504430007,None,d,0,0.39044877700143843,1137.1618504430007,None,1137.5781399789994,None,1137.5781399789994,None,d,0.1741811800020514,1137.5781399789994,None,1137.7771610419986,None,,,,,sub-11,06/12/2002,2: Female,15/07/2023,002,1: right,2023_Jul_15_1401,[FINAL]_fmri_multiplication,2021.2.3,59.94412955276247
block8.xlsx,259.5,7.5,11.3,7 x 8,56,22,8 x 7 = 56,large-sized_high-interference,large-sized,high-interference,9,CorrectRESP,a,0,3,3,3,0,19,19,19,,,,,,,,,,,,,,,1141.77839,None,1142.278916504998,None,1144.2776340579985,None,1145.0287505119995,None,1145.2791369650004,None,1145.2791369650004,None,d,0,0.42507136199856177,1145.2791369650004,None,1145.7284065950007,None,1145.7284065950007,None,d,0.14382735599792795,1145.7284065950007,None,1145.8949891789998,None,,,,,sub-11,06/12/2002,2: Female,15/07/2023,002,1: right,2023_Jul_15_1401,[FINAL]_fmri_multiplication,2021.2.3,59.94412955276247
block8.xlsx,278.3,7.5,10.9,6 x 5,36,14,5 x 6 = 36,large-sized_low-interference,large-sized,low-interference,6,IncorrectRESP,d,0,3,3,3,0,20,20,20,,,,,,,,,,,,,,,1157.1958814110003,None,1157.7096564460007,None,1159.712604534001,None,1160.462085,None,1160.7127538879977,None,1160.7127538879977,None,a,0,0.44754081800056156,1160.7127538879977,None,1161.1787690429992,None,1161.1787690429992,None,d,0.12544861399874208,1161.1787690429992,None,1161.3288752080007,None,,,,,sub-11,06/12/2002,2: Female,15/07/2023,002,1: right,2023_Jul_15_1401,[FINAL]_fmri_multiplication,2021.2.3,59.94412955276247
block8.xlsx,296.7,7.5,3.5,9 x 4,36,20,4 x 9 = 36,large-sized_high-interference,large-sized,high-interference,9,CorrectRESP,a,0,3,3,3,0,21,21,21,,,,,,,,,,,,,,,1172.2288521349983,None,1172.7298193819988,None,1174.7275724659994,None,1175.478959068998,None,1175.7290948019981,None,1175.7290948019981,None,d,0,0.5992422369999986,1175.7290948019981,None,1176.345496515998,None,1176.345496515998,None,d,0.1826942030020291,1176.345496515998,None,1176.561481,None,,,,,sub-11,06/12/2002,2: Female,15/07/2023,002,1: right,2023_Jul_15_1401,[FINAL]_fmri_multiplication,2021.2.3,59.94412955276247
block8.xlsx,307.7,7.5,2.9,4 x 4,16,4,4 x 4 = 16,small-sized_low-interference,small-sized,low-interference,5,CorrectRESP,a,0,3,3,3,0,22,22,22,,,,,,,,,,,,,,,1180.062161408001,None,1180.5615396979993,None,1182.561437,None,1183.3122838540003,None,1183.5622725409994,None,1183.5622725409994,None,d,0,0.4859339539980283,1183.5622725409994,None,1184.0787324310004,None,1184.0787324310004,None,d,0.1775791100008064,1184.0787324310004,None,1184.278366360999,None,,,,,sub-11,06/12/2002,2: Female,15/07/2023,002,1: right,2023_Jul_15_1401,[FINAL]_fmri_multiplication,2021.2.3,59.94412955276247
block8.xlsx,318.1,7.5,9.4,4 x 8,28,24,8 x 4 = 28,large-sized_high-interference,large-sized,high-interference,25,IncorrectRESP,d,0,3,3,3,0,23,23,23,,,,,,,,,,,,,,,1187.1787976979977,None,1187.678496558001,None,1189.6789719549997,None,1190.428877426999,None,1190.6792890869983,None,1190.6792890869983,None,None,0,,1190.6792890869983,None,1192.678117981999,None,1192.678117981999,None,a,0.010060281,1192.678117981999,None,1192.7094372809988,None,,,,,sub-11,06/12/2002,2: Female,15/07/2023,002,1: right,2023_Jul_15_1401,[FINAL]_fmri_multiplication,2021.2.3,59.94412955276247
block8.xlsx,,,,,,,,,,,,,,0,3,3,3,,,,,0,0,0,0,,,,,,,,,,,,,,,,,,,,,,,,,,,,,,,,,,,,,,1202.1098397799979,None,1202.1098397799979,None,sub-11,06/12/2002,2: Female,15/07/2023,002,1: right,2023_Jul_15_1401,[FINAL]_fmri_multiplication,2021.2.3,59.94412955276247
block8.xlsx,,,,,,,,,,,,,,0,3,3,3,,,,,1,0,1,0,,,,,,,,,,,,,,,,,,,,,,,,,,,,,,,,,,,,,,1203.1106300539977,1203.1106300539977,1203.1106300539977,1203.1106300539977,sub-11,06/12/2002,2: Female,15/07/2023,002,1: right,2023_Jul_15_1401,[FINAL]_fmri_multiplication,2021.2.3,59.94412955276247
block8.xlsx,,,,,,,,,,,,,,0,3,3,3,,,,,2,0,2,0,,,,,,,,,,,,,,,,,,,,,,,,,,,,,,,,,,,,,,1204.1116103719978,1204.1116103719978,1204.1116103719978,1204.1116103719978,sub-11,06/12/2002,2: Female,15/07/2023,002,1: right,2023_Jul_15_1401,[FINAL]_fmri_multiplication,2021.2.3,59.94412955276247
block8.xlsx,,,,,,,,,,,,,,0,3,3,3,,,,,3,0,3,0,,,,,,,,,,,,,,,,,,,,,,,,,,,,,,,,,,,,,,1205.112052217999,None,1205.112052217999,None,sub-11,06/12/2002,2: Female,15/07/2023,002,1: right,2023_Jul_15_1401,[FINAL]_fmri_multiplication,2021.2.3,59.94412955276247
block8.xlsx,,,,,,,,,,,,,,0,3,3,3,,,,,4,0,4,0,,,,,,,,,,,,,,,,,,,,,,,,,,,,,,,,,,,,,,1206.1200393149993,None,1206.1200393149993,None,sub-11,06/12/2002,2: Female,15/07/2023,002,1: right,2023_Jul_15_1401,[FINAL]_fmri_multiplication,2021.2.3,59.94412955276247
block8.xlsx,,,,,,,,,,,,,,0,3,3,3,,,,,5,0,5,0,,,,,,,,,,,,,,,,,,,,,,,,,,,,,,,,,,,,,,1207.112923083001,None,1207.112923083001,None,sub-11,06/12/2002,2: Female,15/07/2023,002,1: right,2023_Jul_15_1401,[FINAL]_fmri_multiplication,2021.2.3,59.94412955276247
block8.xlsx,,,,,,,,,,,,,,0,3,3,3,,,,,6,0,6,0,,,,,,,,,,,,,,,,,,,,,,,,,,,,,,,,,,,,,,1208.1124358960005,None,1208.1124358960005,None,sub-11,06/12/2002,2: Female,15/07/2023,002,1: right,2023_Jul_15_1401,[FINAL]_fmri_multiplication,2021.2.3,59.94412955276247
block8.xlsx,,,,,,,,,,,,,,0,3,3,3,,,,,7,0,7,0,,,,,,,,,,,,,,,,,,,,,,,,,,,,,,,,,,,,,,1209.1127893109988,None,1209.1127893109988,None,sub-11,06/12/2002,2: Female,15/07/2023,002,1: right,2023_Jul_15_1401,[FINAL]_fmri_multiplication,2021.2.3,59.94412955276247
block8.xlsx,,,,,,,,,,,,,,0,3,3,3,,,,,8,0,8,0,,,,,,,,,,,,,,,,,,,,,,,,,,,,,,,,,,,,,,1210.1136222759997,None,1210.1136222759997,None,sub-11,06/12/2002,2: Female,15/07/2023,002,1: right,2023_Jul_15_1401,[FINAL]_fmri_multiplication,2021.2.3,59.94412955276247
block8.xlsx,,,,,,,,,,,,,,0,3,3,3,,,,,9,0,9,0,,,,,,,,,,,,,,,,,,,,,,,,,,,,,,,,,,,,,,1211.1123132089997,None,1211.1123132089997,None,sub-11,06/12/2002,2: Female,15/07/2023,002,1: right,2023_Jul_15_1401,[FINAL]_fmri_multiplication,2021.2.3,59.94412955276247
block8.xlsx,,,,,,,,,,,,,,0,3,3,3,,,,,10,0,10,0,,,,,,,,,,,,,,,,,,,,,,,,,,,,,,,,,,,,,,1212.1127493989989,None,1212.1127493989989,None,sub-11,06/12/2002,2: Female,15/07/2023,002,1: right,2023_Jul_15_1401,[FINAL]_fmri_multiplication,2021.2.3,59.94412955276247
block8.xlsx,,,,,,,,,,,,,,0,3,3,3,,,,,11,0,11,0,,,,,,,,,,,,,,,,,,,,,,,,,,,,,,,,,,,,,,1213.1126525920008,None,1213.1126525920008,None,sub-11,06/12/2002,2: Female,15/07/2023,002,1: right,2023_Jul_15_1401,[FINAL]_fmri_multiplication,2021.2.3,59.94412955276247
block8.xlsx,,,,,,,,,,,,,,0,3,3,3,,,,,12,0,12,0,,,,,,,,,,,,,,,,,,,,,,,,,,,,,,,,,,,,,,1214.1124945529991,None,1214.1124945529991,None,sub-11,06/12/2002,2: Female,15/07/2023,002,1: right,2023_Jul_15_1401,[FINAL]_fmri_multiplication,2021.2.3,59.94412955276247
block8.xlsx,,,,,,,,,,,,,,0,3,3,3,,,,,13,0,13,0,,,,,,,,,,,,,,,,,,,,,,,,,,,,,,,,,,,,,,1215.1122124709982,None,1215.1122124709982,None,sub-11,06/12/2002,2: Female,15/07/2023,002,1: right,2023_Jul_15_1401,[FINAL]_fmri_multiplication,2021.2.3,59.94412955276247
block8.xlsx,,,,,,,,,,,,,,0,3,3,3,,,,,14,0,14,0,,,,,,,,,,,,,,,,,,,,,,,,,,,,,,,,,,,,,,1216.112807002999,None,1216.112807002999,None,sub-11,06/12/2002,2: Female,15/07/2023,002,1: right,2023_Jul_15_1401,[FINAL]_fmri_multiplication,2021.2.3,59.94412955276247
block8.xlsx,,,,,,,,,,,,,,0,3,3,3,,,,,15,0,15,0,,,,,,,,,,,,,,,,,,,,,,,,,,,,,,,,,,,,,,1217.1123575050005,None,1217.1123575050005,None,sub-11,06/12/2002,2: Female,15/07/2023,002,1: right,2023_Jul_15_1401,[FINAL]_fmri_multiplication,2021.2.3,59.94412955276247
block8.xlsx,,,,,,,,,,,,,,0,3,3,3,,,,,16,0,16,0,,,,,,,,,,,,,,,,,,,,,,,,,,,,,,,,,,,,,,1218.112367,None,1218.112367,None,sub-11,06/12/2002,2: Female,15/07/2023,002,1: right,2023_Jul_15_1401,[FINAL]_fmri_multiplication,2021.2.3,59.94412955276247
block8.xlsx,,,,,,,,,,,,,,0,3,3,3,,,,,17,0,17,0,,,,,,,,,,,,,,,,,,,,,,,,,,,,,,,,,,,,,,1219.1132466150011,None,1219.1132466150011,None,sub-11,06/12/2002,2: Female,15/07/2023,002,1: right,2023_Jul_15_1401,[FINAL]_fmri_multiplication,2021.2.3,59.94412955276247
block8.xlsx,,,,,,,,,,,,,,0,3,3,3,,,,,18,0,18,0,,,,,,,,,,,,,,,,,,,,,,,,,,,,,,,,,,,,,,1220.126183190001,None,1220.126183190001,None,sub-11,06/12/2002,2: Female,15/07/2023,002,1: right,2023_Jul_15_1401,[FINAL]_fmri_multiplication,2021.2.3,59.94412955276247
block8.xlsx,,,,,,,,,,,,,,0,3,3,3,,,,,19,0,19,0,,,,,,,,,,,,,,,,,,,,,,,,,,,,,,,,,,,,,,1221.128455932001,None,1221.128455932001,None,sub-11,06/12/2002,2: Female,15/07/2023,002,1: right,2023_Jul_15_1401,[FINAL]_fmri_multiplication,2021.2.3,59.94412955276247
block8.xlsx,,,,,,,,,,,,,,0,3,3,3,,,,,20,0,20,0,,,,,,,,,,,,,,,,,,,,,,,,,,,,,,,,,,,,,,1222.1130962429997,None,1222.1130962429997,None,sub-11,06/12/2002,2: Female,15/07/2023,002,1: right,2023_Jul_15_1401,[FINAL]_fmri_multiplication,2021.2.3,59.94412955276247
block8.xlsx,,,,,,,,,,,,,,0,3,3,3,,,,,21,0,21,0,,,,,,,,,,,,,,,,,,,,,,,,,,,,,,,,,,,,,,1223.1147768019982,None,1223.1147768019982,None,sub-11,06/12/2002,2: Female,15/07/2023,002,1: right,2023_Jul_15_1401,[FINAL]_fmri_multiplication,2021.2.3,59.94412955276247
block8.xlsx,,,,,,,,,,,,,,0,3,3,3,,,,,22,0,22,0,,,,,,,,,,,,,,,,,,,,,,,,,,,,,,,,,,,,,,1224.1145627379992,None,1224.1145627379992,None,sub-11,06/12/2002,2: Female,15/07/2023,002,1: right,2023_Jul_15_1401,[FINAL]_fmri_multiplication,2021.2.3,59.94412955276247
block8.xlsx,,,,,,,,,,,,,,0,3,3,3,,,,,23,0,23,0,,,,,,,,,,,,,,,,,,,,,,,,,,,,,,,,,,,,,,1225.1112105139982,None,1225.1112105139982,None,sub-11,06/12/2002,2: Female,15/07/2023,002,1: right,2023_Jul_15_1401,[FINAL]_fmri_multiplication,2021.2.3,59.94412955276247
block8.xlsx,,,,,,,,,,,,,,0,3,3,3,,,,,24,0,24,0,,,,,,,,,,,,,,,,,,,,,,,,,,,,,,,,,,,,,,1226.113116,None,1226.113116,None,sub-11,06/12/2002,2: Female,15/07/2023,002,1: right,2023_Jul_15_1401,[FINAL]_fmri_multiplication,2021.2.3,59.94412955276247
block8.xlsx,,,,,,,,,,,,,,0,3,3,3,,,,,25,0,25,0,,,,,,,,,,,,,,,,,,,,,,,,,,,,,,,,,,,,,,1227.1147087850004,None,1227.1147087850004,None,sub-11,06/12/2002,2: Female,15/07/2023,002,1: right,2023_Jul_15_1401,[FINAL]_fmri_multiplication,2021.2.3,59.94412955276247
block8.xlsx,,,,,,,,,,,,,,0,3,3,3,,,,,26,0,26,0,,,,,,,,,,,,,,,,,,,,,,,,,,,,,,,,,,,,,,1228.1130305669976,None,1228.1130305669976,None,sub-11,06/12/2002,2: Female,15/07/2023,002,1: right,2023_Jul_15_1401,[FINAL]_fmri_multiplication,2021.2.3,59.94412955276247
block8.xlsx,,,,,,,,,,,,,,0,3,3,3,,,,,27,0,27,0,,,,,,,,,,,,,,,,,,,,,,,,,,,,,,,,,,,,,,1229.111985,None,1229.111985,None,sub-11,06/12/2002,2: Female,15/07/2023,002,1: right,2023_Jul_15_1401,[FINAL]_fmri_multiplication,2021.2.3,59.94412955276247
block8.xlsx,,,,,,,,,,,,,,0,3,3,3,,,,,28,0,28,0,,,,,,,,,,,,,,,,,,,,,,,,,,,,,,,,,,,,,,1230.1127225069977,None,1230.1127225069977,None,sub-11,06/12/2002,2: Female,15/07/2023,002,1: right,2023_Jul_15_1401,[FINAL]_fmri_multiplication,2021.2.3,59.94412955276247
block8.xlsx,,,,,,,,,,,,,,0,3,3,3,,,,,29,0,29,0,,,,,,,,,,,,,,,,,,,,,,,,,,,,,,,,,,,,,,1231.1143158189989,None,1231.1143158189989,None,sub-11,06/12/2002,2: Female,15/07/2023,002,1: right,2023_Jul_15_1401,[FINAL]_fmri_multiplication,2021.2.3,59.94412955276247
block8.xlsx,,,,,,,,,,,,,,0,3,3,3,,,,,,,,,,,,,,,,,,,,,,,,,,,,,,,,,,,,,,,,,,,,,,,,,,sub-11,06/12/2002,2: Female,15/07/2023,002,1: right,2023_Jul_15_1401,[FINAL]_fmri_multiplication,2021.2.3,59.94412955276247