blocks_file,start,dur,rest,mult_problemB,mult_options,stim_trial,mult_stim,type,ProblemSize,InterferenceLH,InterferenceLevel,mult_type,corrRESP,blocks_set.thisRepN,blocks_set.thisTrialN,blocks_set.thisN,blocks_set.thisIndex,TRIALS.thisRepN,TRIALS.thisTrialN,TRIALS.thisN,TRIALS.thisIndex,timer_loop.thisRepN,timer_loop.thisTrialN,timer_loop.thisN,timer_loop.thisIndex,WAIT_TEXT.started,WAIT_TEXT.stopped,scan_start_trigger.keys,scan_start_trigger.rt,scan_start_trigger.started,scan_start_trigger.stopped,MAIN_SCREEN.started,MAIN_SCREEN.stopped,Block_Text.started,Block_Text.stopped,asterisk500ms.started,asterisk500ms.stopped,mult_question_text.started,mult_question_text.stopped,equal_text.started,equal_text.stopped,blank250_text.started,blank250_text.stopped,Mult_OPTION.started,Mult_OPTION.stopped,Mult_YN.started,Mult_YN.stopped,Mult_Resp.keys,Mult_Resp.corr,Mult_Resp.rt,Mult_Resp.started,Mult_Resp.stopped,Strategy_Q.started,Strategy_Q.stopped,Strategy_Option.started,Strategy_Option.stopped,Strategy_RESP.keys,Strategy_RESP.rt,Strategy_RESP.started,Strategy_RESP.stopped,jitters.started,jitters.stopped,resting_text.started,resting_text.stopped,countdown_timer.started,countdown_timer.stopped,End_Text.started,End_Text.stopped,fixation.started,fixation.stopped,fixation_end.keys,fixation_end.rt,fixation_end.started,fixation_end.stopped,participant,Date of birth (DD/MM/YEAR),gender,Testing Date (DD/MM/YEAR),session,handedness,date,expName,psychopyVersion,frameRate
,,,,,,,,,,,,,,,,,,,,,,,,,,33.2966045,None,s,10.881633571000293,33.2966045,None,,,,,,,,,,,,,,,,,,,,,,,,,,,,,,,,,,,,,,,,,,,,sub-25,30/03/2000,2: Female,01/11/2023,002,1: right,2023_Nov_01_1732,[FINAL]_fmri_multiplication,2021.2.3,59.987189855585534
block5.xlsx,10,7.5,4.6,3 x 6,18,7,6 x 3 = 18,small-sized_high-interference,small-sized,high-interference,8,CorrectRESP,a,0,0,0,0,0,0,0,0,,,,,,,,,,,44.20509156199978,None,49.22560331500017,None,59.24730576100001,None,59.72558635999985,None,61.72137882800007,None,62.47127981,None,62.72357562800016,None,62.72357562800016,None,d,0,0.5756599930000448,62.72357562800016,None,63.32223726999973,None,63.32223726999973,None,d,0.089154403,63.32223726999973,None,63.43733308599985,None,,,,,,,,,,,,,sub-25,30/03/2000,2: Female,01/11/2023,002,1: right,2023_Nov_01_1732,[FINAL]_fmri_multiplication,2021.2.3,59.987189855585534
block5.xlsx,22.1,7.5,7,9 x 9,72,16,9 x 9 = 72,large-sized_low-interference,large-sized,low-interference,6,IncorrectRESP,d,0,0,0,0,0,1,1,1,,,,,,,,,,,,,,,68.03804376800008,None,68.53970317899984,None,70.55473944300002,None,71.30496393800013,None,71.55804998299982,None,71.55804998299982,None,a,0,0.6213183560003017,71.55804998299982,None,72.20430603600016,None,72.20430603600016,None,d,0.5510019329999523,72.20430603600016,None,72.77164283999991,None,,,,,,,,,,,,,sub-25,30/03/2000,2: Female,01/11/2023,002,1: right,2023_Nov_01_1732,[FINAL]_fmri_multiplication,2021.2.3,59.987189855585534
block5.xlsx,36.6,7.5,4.4,2 x 6,12,6,6 x 2 = 12,small-sized_low-interference,small-sized,low-interference,3,CorrectRESP,a,0,0,0,0,0,2,2,2,,,,,,,,,,,,,,,79.77162483899974,None,80.27204954699982,None,82.27137762099983,None,83.02140286299982,None,83.27134906799984,None,83.27134906799984,None,d,0,0.45995335799989334,83.27134906799984,None,83.75431549,None,83.75431549,None,d,0.1930039629996827,83.75431549,None,83.97084309299998,None,,,,,,,,,,,,,sub-25,30/03/2000,2: Female,01/11/2023,002,1: right,2023_Nov_01_1732,[FINAL]_fmri_multiplication,2021.2.3,59.987189855585534
block5.xlsx,48.5,7.5,9.6,8 x 3,24,12,3 x 8 = 24,small-sized_high-interference,small-sized,high-interference,13,CorrectRESP,a,0,0,0,0,0,3,3,3,,,,,,,,,,,,,,,88.37166509400004,None,88.87132108800006,None,90.87129842,None,91.62119938600017,None,91.87306011300007,None,91.87306011300007,None,d,0,0.506323177,91.87306011300007,None,92.40444746599997,None,92.40444746599997,None,d,0.1909680069998103,92.40444746599997,None,92.62111013100002,None,,,,,,,,,,,,,sub-25,30/03/2000,2: Female,01/11/2023,002,1: right,2023_Nov_01_1732,[FINAL]_fmri_multiplication,2021.2.3,59.987189855585534
block5.xlsx,65.6,7.5,5.4,5 x 5,30,3,5 x 5 = 30,small-sized_low-interference,small-sized,low-interference,3,IncorrectRESP,d,0,0,0,0,0,4,4,4,,,,,,,,,,,,,,,102.22096417000012,None,102.72351169700005,None,104.7382589,None,105.48782136199998,None,105.73973127999989,None,105.73973127999989,None,a,0,0.46366757699979644,105.73973127999989,None,106.22180978200004,None,106.22180978200004,None,d,0.19758264099982625,106.22180978200004,None,106.43827130599993,None,,,,,,,,,,,,,sub-25,30/03/2000,2: Female,01/11/2023,002,1: right,2023_Nov_01_1732,[FINAL]_fmri_multiplication,2021.2.3,59.987189855585534
block5.xlsx,78.5,7.5,7.7,3 x 9,27,19,9 x 3 = 27,large-sized_high-interference,large-sized,high-interference,9,CorrectRESP,a,0,0,0,0,0,5,5,5,,,,,,,,,,,,,,,111.83797335600002,None,112.33879285400008,None,114.33817298599979,None,115.08842136099975,None,115.3389966929999,None,115.3389966929999,None,d,0,0.48835665699971287,115.3389966929999,None,115.8544833420001,None,115.8544833420001,None,d,0.17291413800012378,115.8544833420001,None,116.05501266300007,None,,,,,,,,,,,,,sub-25,30/03/2000,2: Female,01/11/2023,002,1: right,2023_Nov_01_1732,[FINAL]_fmri_multiplication,2021.2.3,59.987189855585534
block5.xlsx,93.7,7.5,3.5,2 x 8,18,5,8 x 2 = 18,small-sized_low-interference,small-sized,low-interference,7,IncorrectRESP,d,0,0,0,0,0,6,6,6,,,,,,,,,,,,,,,123.75469610299979,None,124.25478724999994,None,126.25461302199983,None,127.00462618999973,None,127.25505381199991,None,127.25505381199991,None,a,0,0.4762514580002062,127.25505381199991,None,127.7542182379998,None,127.7542182379998,None,d,0.18505559600043853,127.7542182379998,None,127.97123778000014,None,,,,,,,,,,,,,sub-25,30/03/2000,2: Female,01/11/2023,002,1: right,2023_Nov_01_1732,[FINAL]_fmri_multiplication,2021.2.3,59.987189855585534
block5.xlsx,104.7,7.5,6.4,7 x 7,49,18,7 x 7 = 49,large-sized_low-interference,large-sized,low-interference,7,CorrectRESP,a,0,0,0,0,0,7,7,7,,,,,,,,,,,,,,,131.47091264399978,None,131.97137113000008,None,133.9709534919998,None,134.7214449590001,None,134.97186252899974,None,134.97186252899974,None,d,0,0.5114386810000724,134.97186252899974,None,135.50425062199974,None,135.50425062199974,None,d,0.18715293100012786,135.50425062199974,None,135.72093804199994,None,,,,,,,,,,,,,sub-25,30/03/2000,2: Female,01/11/2023,002,1: right,2023_Nov_01_1732,[FINAL]_fmri_multiplication,2021.2.3,59.987189855585534
block5.xlsx,118.6,7.5,3.2,8 x 5,45,21,5 x 8 = 45,large-sized_high-interference,large-sized,high-interference,9,IncorrectRESP,d,0,0,0,0,0,8,8,8,,,,,,,,,,,,,,,142.12154778100012,None,142.62158582999973,None,144.62161737499991,None,145.37174110399974,None,145.62201619100006,None,145.62201619100006,None,a,0,0.5012812,145.62201619100006,None,146.15509181300013,None,146.15509181300013,None,d,0.15221095700007936,146.15509181300013,None,146.3385239879999,None,,,,,,,,,,,,,sub-25,30/03/2000,2: Female,01/11/2023,002,1: right,2023_Nov_01_1732,[FINAL]_fmri_multiplication,2021.2.3,59.987189855585534
block5.xlsx,129.3,7.5,6.8,5 x 4,20,8,4 x 5 = 20,small-sized_high-interference,small-sized,high-interference,8,CorrectRESP,a,0,0,0,0,0,9,9,9,,,,,,,,,,,,,,,149.5384574,None,150.03833670599988,None,152.0383056,None,152.78822410300018,None,153.03952492000008,None,153.03952492000008,None,d,0,0.45182196800033125,153.03952492000008,None,153.5211174269998,None,153.5211174269998,None,d,0.16222907900009886,153.5211174269998,None,153.7043906849999,None,,,,,,,,,,,,,sub-25,30/03/2000,2: Female,01/11/2023,002,1: right,2023_Nov_01_1732,[FINAL]_fmri_multiplication,2021.2.3,59.987189855585534
block5.xlsx,143.6,7.5,5.5,6 x 5,30,14,5 x 6 = 30,large-sized_low-interference,large-sized,low-interference,6,CorrectRESP,a,0,0,0,0,0,10,10,10,,,,,,,,,,,,,,,160.5047050449998,None,161.0050954049998,None,163.00473157899978,None,163.75474785699998,None,164.00504403700006,None,164.00504403700006,None,d,0,0.4622398310002609,164.00504403700006,None,164.48761484399984,None,164.48761484399984,None,d,0.17181851700024708,164.48761484399984,None,164.6880242369998,None,,,,,,,,,,,,,sub-25,30/03/2000,2: Female,01/11/2023,002,1: right,2023_Nov_01_1732,[FINAL]_fmri_multiplication,2021.2.3,59.987189855585534
block5.xlsx,156.6,7.5,6,3 x 7,24,11,7 x 3 = 24,small-sized_high-interference,small-sized,high-interference,13,IncorrectRESP,d,0,0,0,0,0,11,11,11,,,,,,,,,,,,,,,170.18753686599985,None,170.68789486000014,None,172.6880315200001,None,173.43806800799985,None,173.68808456599982,None,173.68808456599982,None,a,0,0.5713018390001707,173.68808456599982,None,174.28788053200014,None,174.28788053200014,None,d,0.1635182889999669,174.28788053200014,None,174.47108087000015,None,,,,,,,,,,,,,sub-25,30/03/2000,2: Female,01/11/2023,002,1: right,2023_Nov_01_1732,[FINAL]_fmri_multiplication,2021.2.3,59.987189855585534
block5.xlsx,170.1,7.5,7.1,5 x 7,40,17,7 x 5 = 40,large-sized_low-interference,large-sized,low-interference,7,IncorrectRESP,d,0,0,0,0,0,12,12,12,,,,,,,,,,,,,,,180.47181808999994,None,180.9722860249999,None,182.97162539300007,None,183.72136147499987,None,183.9726279229999,None,183.9726279229999,None,a,0,0.39079099199989287,183.9726279229999,None,184.38806190900004,None,184.38806190900004,None,d,0.11920916999997644,184.38806190900004,None,184.53797710900017,None,,,,,,,,,,,,,sub-25,30/03/2000,2: Female,01/11/2023,002,1: right,2023_Nov_01_1732,[FINAL]_fmri_multiplication,2021.2.3,59.987189855585534
block5.xlsx,184.7,7.5,5.3,4 x 6,28,10,6 x 4 = 28,small-sized_high-interference,small-sized,high-interference,12,IncorrectRESP,d,0,0,0,0,0,13,13,13,,,,,,,,,,,,,,,191.6381560740001,None,192.13793290800004,None,194.13821607199998,None,194.88804242800006,None,195.13843354399978,None,195.13843354399978,None,a,0,0.4249828659999366,195.13843354399978,None,195.58761660599976,None,195.58761660599976,None,d,0.15971392000028573,195.58761660599976,None,195.77092969800015,None,,,,,,,,,,,,,sub-25,30/03/2000,2: Female,01/11/2023,002,1: right,2023_Nov_01_1732,[FINAL]_fmri_multiplication,2021.2.3,59.987189855585534
block5.xlsx,197.5,7.5,4.2,2 x 7,14,1,7 x 2 = 14,small-sized_low-interference,small-sized,low-interference,4,CorrectRESP,a,0,0,0,0,0,14,14,14,,,,,,,,,,,,,,,201.0708202410001,None,201.5717347609998,None,203.5712404410001,None,204.32134127100016,None,204.57177393099983,None,204.57177393099983,None,d,0,0.4475895150003453,204.57177393099983,None,205.03770252699996,None,205.03770252699996,None,d,0.16571397999996407,205.03770252699996,None,205.22092677499995,None,,,,,,,,,,,,,sub-25,30/03/2000,2: Female,01/11/2023,002,1: right,2023_Nov_01_1732,[FINAL]_fmri_multiplication,2021.2.3,59.987189855585534
block5.xlsx,209.2,7.5,7.2,9 x 4,36,20,4 x 9 = 36,large-sized_high-interference,large-sized,high-interference,9,CorrectRESP,a,0,0,0,0,0,15,15,15,,,,,,,,,,,,,,,209.42143654699976,None,209.9226369150001,None,211.92169067399982,None,212.67145230000006,None,212.9239651339999,None,212.9239651339999,None,d,0,0.5512064790000295,212.9239651339999,None,213.49768969900015,None,213.49768969900015,None,d,0.16960948199994164,213.49768969900015,None,213.6846518289999,None,,,,,,,,,,,,,sub-25,30/03/2000,2: Female,01/11/2023,002,1: right,2023_Nov_01_1732,[FINAL]_fmri_multiplication,2021.2.3,59.987189855585534
block5.xlsx,223.9,7.5,4.3,4 x 4,20,4,4 x 4 = 20,small-sized_low-interference,small-sized,low-interference,5,IncorrectRESP,d,0,0,0,0,0,16,16,16,,,,,,,,,,,,,,,220.88856953899995,None,221.38835740600007,None,223.38820732099975,None,224.1383023819999,None,224.38777038499984,None,224.38777038499984,None,a,0,0.3916234439998334,224.38777038499984,None,224.80443609799977,None,224.80443609799977,None,d,0.1508369270000003,224.80443609799977,None,224.98799971400013,None,,,,,,,,,,,,,sub-25,30/03/2000,2: Female,01/11/2023,002,1: right,2023_Nov_01_1732,[FINAL]_fmri_multiplication,2021.2.3,59.987189855585534
block5.xlsx,235.7,7.5,9.9,6 x 7,48,23,7 x 6 = 48,large-sized_high-interference,large-sized,high-interference,22,IncorrectRESP,d,0,0,0,0,0,17,17,17,,,,,,,,,,,,,,,229.28801313099984,None,229.7881567,None,231.7880244879998,None,232.53807024499974,None,232.78817025699982,None,232.78817025699982,None,a,0,0.4712476009999591,232.78817025699982,None,233.28799493199995,None,233.28799493199995,None,d,0.15541131000009045,233.28799493199995,None,233.47090819799996,None,,,,,,,,,,,,,sub-25,30/03/2000,2: Female,01/11/2023,002,1: right,2023_Nov_01_1732,[FINAL]_fmri_multiplication,2021.2.3,59.987189855585534
block5.xlsx,253.1,7.5,3.1,9 x 2,18,2,2 x 9 = 18,small-sized_low-interference,small-sized,low-interference,7,CorrectRESP,a,0,0,0,0,0,18,18,18,,,,,,,,,,,,,,,243.3713657039998,None,243.87047718899976,None,245.87153076899995,None,246.62151728699973,None,246.87180980799985,None,246.87180980799985,None,d,0,0.4995770890000131,246.87180980799985,None,247.3888031,None,247.3888031,None,d,0.17455170000039288,247.3888031,None,247.58817480100015,None,,,,,,,,,,,,,sub-25,30/03/2000,2: Female,01/11/2023,002,1: right,2023_Nov_01_1732,[FINAL]_fmri_multiplication,2021.2.3,59.987189855585534
block5.xlsx,263.7,7.5,4.6,5 x 9,40,15,9 x 5 = 40,large-sized_low-interference,large-sized,low-interference,6,IncorrectRESP,d,0,0,0,0,0,19,19,19,,,,,,,,,,,,,,,250.68851823600016,None,251.18843873900005,None,253.18844139300018,None,253.93846220600017,None,254.1885487579998,None,254.1885487579998,None,a,0,0.4548376730003838,254.1885487579998,None,254.67248595799992,None,254.67248595799992,None,d,0.1309921659999418,254.67248595799992,None,254.82130396599996,None,,,,,,,,,,,,,sub-25,30/03/2000,2: Female,01/11/2023,002,1: right,2023_Nov_01_1732,[FINAL]_fmri_multiplication,2021.2.3,59.987189855585534
block5.xlsx,275.8,7.5,3.9,7 x 8,63,22,8 x 7 = 63,large-sized_high-interference,large-sized,high-interference,9,IncorrectRESP,d,0,0,0,0,0,20,20,20,,,,,,,,,,,,,,,259.42156988299985,None,259.92137351300016,None,261.9217003949998,None,262.67163332200016,None,262.9219175919998,None,262.9219175919998,None,a,0,0.44148225000026287,262.9219175919998,None,263.38760722999996,None,263.38760722999996,None,d,0.1436902629998258,263.38760722999996,None,263.55424165500017,None,,,,,,,,,,,,,sub-25,30/03/2000,2: Female,01/11/2023,002,1: right,2023_Nov_01_1732,[FINAL]_fmri_multiplication,2021.2.3,59.987189855585534
block5.xlsx,287.2,7.5,7.4,4 x 3,15,9,3 x 4 = 15,small-sized_high-interference,small-sized,high-interference,10,IncorrectRESP,d,0,0,0,0,0,21,21,21,,,,,,,,,,,,,,,267.45425270099986,None,267.9549299,None,269.9547837089999,None,270.70420214700016,None,270.9550052,None,270.9550052,None,a,0,0.41631277500027863,270.9550052,None,271.38837036899986,None,271.38837036899986,None,d,0.15093505200002255,271.38837036899986,None,271.57132110099974,None,,,,,,,,,,,,,sub-25,30/03/2000,2: Female,01/11/2023,002,1: right,2023_Nov_01_1732,[FINAL]_fmri_multiplication,2021.2.3,59.987189855585534
block5.xlsx,302.1,7.5,7.1,4 x 8,32,24,8 x 4 = 32,large-sized_high-interference,large-sized,high-interference,25,CorrectRESP,a,0,0,0,0,0,22,22,22,,,,,,,,,,,,,,,278.9712034559998,None,279.47171652999987,None,281.47143613299977,None,282.22163385299973,None,282.4722346899998,None,282.4722346899998,None,a,1,0.4030470190000415,282.4722346899998,None,282.90525003599987,None,282.90525003599987,None,None,,282.90525003599987,None,284.9052791179997,None,,,,,,,,,,,,,sub-25,30/03/2000,2: Female,01/11/2023,002,1: right,2023_Nov_01_1732,[FINAL]_fmri_multiplication,2021.2.3,59.987189855585534
block5.xlsx,316.7,7.5,10.8,6 x 6,36,13,6 x 6 = 36,large-sized_low-interference,large-sized,low-interference,4,CorrectRESP,a,0,0,0,0,0,23,23,23,,,,,,,,,,,,,,,292.00485608100007,None,292.5048571,None,294.5047600879998,None,295.25532559700014,None,295.5049381670001,None,295.5049381670001,None,d,0,0.4584715179998966,295.5049381670001,None,295.98755350700003,None,295.98755350700003,None,d,0.5598298199997771,295.98755350700003,None,296.57146513199996,None,,,,,,,,,,,,,sub-25,30/03/2000,2: Female,01/11/2023,002,1: right,2023_Nov_01_1732,[FINAL]_fmri_multiplication,2021.2.3,59.987189855585534
block5.xlsx,,,,,,,,,,,,,,0,0,0,0,,,,,0,0,0,0,,,,,,,,,,,,,,,,,,,,,,,,,,,,,,,,,,,,,,307.3748452,None,307.3748452,None,,,,,,,,,sub-25,30/03/2000,2: Female,01/11/2023,002,1: right,2023_Nov_01_1732,[FINAL]_fmri_multiplication,2021.2.3,59.987189855585534
block5.xlsx,,,,,,,,,,,,,,0,0,0,0,,,,,1,0,1,0,,,,,,,,,,,,,,,,,,,,,,,,,,,,,,,,,,,,,,308.38905159399974,None,308.38905159399974,None,,,,,,,,,sub-25,30/03/2000,2: Female,01/11/2023,002,1: right,2023_Nov_01_1732,[FINAL]_fmri_multiplication,2021.2.3,59.987189855585534
block5.xlsx,,,,,,,,,,,,,,0,0,0,0,,,,,2,0,2,0,,,,,,,,,,,,,,,,,,,,,,,,,,,,,,,,,,,,,,309.3892627979999,None,309.3892627979999,None,,,,,,,,,sub-25,30/03/2000,2: Female,01/11/2023,002,1: right,2023_Nov_01_1732,[FINAL]_fmri_multiplication,2021.2.3,59.987189855585534
block5.xlsx,,,,,,,,,,,,,,0,0,0,0,,,,,3,0,3,0,,,,,,,,,,,,,,,,,,,,,,,,,,,,,,,,,,,,,,310.3887012350001,None,310.3887012350001,None,,,,,,,,,sub-25,30/03/2000,2: Female,01/11/2023,002,1: right,2023_Nov_01_1732,[FINAL]_fmri_multiplication,2021.2.3,59.987189855585534
block5.xlsx,,,,,,,,,,,,,,0,0,0,0,,,,,4,0,4,0,,,,,,,,,,,,,,,,,,,,,,,,,,,,,,,,,,,,,,311.38903831100015,None,311.38903831100015,None,,,,,,,,,sub-25,30/03/2000,2: Female,01/11/2023,002,1: right,2023_Nov_01_1732,[FINAL]_fmri_multiplication,2021.2.3,59.987189855585534
block5.xlsx,,,,,,,,,,,,,,0,0,0,0,,,,,5,0,5,0,,,,,,,,,,,,,,,,,,,,,,,,,,,,,,,,,,,,,,312.39074092500005,None,312.39074092500005,None,,,,,,,,,sub-25,30/03/2000,2: Female,01/11/2023,002,1: right,2023_Nov_01_1732,[FINAL]_fmri_multiplication,2021.2.3,59.987189855585534
block5.xlsx,,,,,,,,,,,,,,0,0,0,0,,,,,6,0,6,0,,,,,,,,,,,,,,,,,,,,,,,,,,,,,,,,,,,,,,313.3903852,None,313.3903852,None,,,,,,,,,sub-25,30/03/2000,2: Female,01/11/2023,002,1: right,2023_Nov_01_1732,[FINAL]_fmri_multiplication,2021.2.3,59.987189855585534
block5.xlsx,,,,,,,,,,,,,,0,0,0,0,,,,,7,0,7,0,,,,,,,,,,,,,,,,,,,,,,,,,,,,,,,,,,,,,,314.3884049829999,None,314.3884049829999,None,,,,,,,,,sub-25,30/03/2000,2: Female,01/11/2023,002,1: right,2023_Nov_01_1732,[FINAL]_fmri_multiplication,2021.2.3,59.987189855585534
block5.xlsx,,,,,,,,,,,,,,0,0,0,0,,,,,8,0,8,0,,,,,,,,,,,,,,,,,,,,,,,,,,,,,,,,,,,,,,315.38899756699993,None,315.38899756699993,None,,,,,,,,,sub-25,30/03/2000,2: Female,01/11/2023,002,1: right,2023_Nov_01_1732,[FINAL]_fmri_multiplication,2021.2.3,59.987189855585534
block5.xlsx,,,,,,,,,,,,,,0,0,0,0,,,,,9,0,9,0,,,,,,,,,,,,,,,,,,,,,,,,,,,,,,,,,,,,,,316.3903802069999,None,316.3903802069999,None,,,,,,,,,sub-25,30/03/2000,2: Female,01/11/2023,002,1: right,2023_Nov_01_1732,[FINAL]_fmri_multiplication,2021.2.3,59.987189855585534
block5.xlsx,,,,,,,,,,,,,,0,0,0,0,,,,,10,0,10,0,,,,,,,,,,,,,,,,,,,,,,,,,,,,,,,,,,,,,,317.38863317000005,None,317.38863317000005,None,,,,,,,,,sub-25,30/03/2000,2: Female,01/11/2023,002,1: right,2023_Nov_01_1732,[FINAL]_fmri_multiplication,2021.2.3,59.987189855585534
block5.xlsx,,,,,,,,,,,,,,0,0,0,0,,,,,11,0,11,0,,,,,,,,,,,,,,,,,,,,,,,,,,,,,,,,,,,,,,318.3827522910001,None,318.3827522910001,None,,,,,,,,,sub-25,30/03/2000,2: Female,01/11/2023,002,1: right,2023_Nov_01_1732,[FINAL]_fmri_multiplication,2021.2.3,59.987189855585534
block5.xlsx,,,,,,,,,,,,,,0,0,0,0,,,,,12,0,12,0,,,,,,,,,,,,,,,,,,,,,,,,,,,,,,,,,,,,,,319.39160231000005,None,319.39160231000005,None,,,,,,,,,sub-25,30/03/2000,2: Female,01/11/2023,002,1: right,2023_Nov_01_1732,[FINAL]_fmri_multiplication,2021.2.3,59.987189855585534
block5.xlsx,,,,,,,,,,,,,,0,0,0,0,,,,,13,0,13,0,,,,,,,,,,,,,,,,,,,,,,,,,,,,,,,,,,,,,,320.3895760800001,None,320.3895760800001,None,,,,,,,,,sub-25,30/03/2000,2: Female,01/11/2023,002,1: right,2023_Nov_01_1732,[FINAL]_fmri_multiplication,2021.2.3,59.987189855585534
block5.xlsx,,,,,,,,,,,,,,0,0,0,0,,,,,14,0,14,0,,,,,,,,,,,,,,,,,,,,,,,,,,,,,,,,,,,,,,321.3893313909998,None,321.3893313909998,None,,,,,,,,,sub-25,30/03/2000,2: Female,01/11/2023,002,1: right,2023_Nov_01_1732,[FINAL]_fmri_multiplication,2021.2.3,59.987189855585534
block5.xlsx,,,,,,,,,,,,,,0,0,0,0,,,,,15,0,15,0,,,,,,,,,,,,,,,,,,,,,,,,,,,,,,,,,,,,,,322.37483572300016,None,322.37483572300016,None,,,,,,,,,sub-25,30/03/2000,2: Female,01/11/2023,002,1: right,2023_Nov_01_1732,[FINAL]_fmri_multiplication,2021.2.3,59.987189855585534
block5.xlsx,,,,,,,,,,,,,,0,0,0,0,,,,,16,0,16,0,,,,,,,,,,,,,,,,,,,,,,,,,,,,,,,,,,,,,,323.3889981699999,None,323.3889981699999,None,,,,,,,,,sub-25,30/03/2000,2: Female,01/11/2023,002,1: right,2023_Nov_01_1732,[FINAL]_fmri_multiplication,2021.2.3,59.987189855585534
block5.xlsx,,,,,,,,,,,,,,0,0,0,0,,,,,17,0,17,0,,,,,,,,,,,,,,,,,,,,,,,,,,,,,,,,,,,,,,324.3902016,None,324.3902016,None,,,,,,,,,sub-25,30/03/2000,2: Female,01/11/2023,002,1: right,2023_Nov_01_1732,[FINAL]_fmri_multiplication,2021.2.3,59.987189855585534
block5.xlsx,,,,,,,,,,,,,,0,0,0,0,,,,,18,0,18,0,,,,,,,,,,,,,,,,,,,,,,,,,,,,,,,,,,,,,,325.39032714199993,None,325.39032714199993,None,,,,,,,,,sub-25,30/03/2000,2: Female,01/11/2023,002,1: right,2023_Nov_01_1732,[FINAL]_fmri_multiplication,2021.2.3,59.987189855585534
block5.xlsx,,,,,,,,,,,,,,0,0,0,0,,,,,19,0,19,0,,,,,,,,,,,,,,,,,,,,,,,,,,,,,,,,,,,,,,326.3890101,None,326.3890101,None,,,,,,,,,sub-25,30/03/2000,2: Female,01/11/2023,002,1: right,2023_Nov_01_1732,[FINAL]_fmri_multiplication,2021.2.3,59.987189855585534
block5.xlsx,,,,,,,,,,,,,,0,0,0,0,,,,,20,0,20,0,,,,,,,,,,,,,,,,,,,,,,,,,,,,,,,,,,,,,,327.38800573599974,None,327.38800573599974,None,,,,,,,,,sub-25,30/03/2000,2: Female,01/11/2023,002,1: right,2023_Nov_01_1732,[FINAL]_fmri_multiplication,2021.2.3,59.987189855585534
block5.xlsx,,,,,,,,,,,,,,0,0,0,0,,,,,21,0,21,0,,,,,,,,,,,,,,,,,,,,,,,,,,,,,,,,,,,,,,328.38787532900005,None,328.38787532900005,None,,,,,,,,,sub-25,30/03/2000,2: Female,01/11/2023,002,1: right,2023_Nov_01_1732,[FINAL]_fmri_multiplication,2021.2.3,59.987189855585534
block5.xlsx,,,,,,,,,,,,,,0,0,0,0,,,,,22,0,22,0,,,,,,,,,,,,,,,,,,,,,,,,,,,,,,,,,,,,,,329.3881851,None,329.3881851,None,,,,,,,,,sub-25,30/03/2000,2: Female,01/11/2023,002,1: right,2023_Nov_01_1732,[FINAL]_fmri_multiplication,2021.2.3,59.987189855585534
block5.xlsx,,,,,,,,,,,,,,0,0,0,0,,,,,23,0,23,0,,,,,,,,,,,,,,,,,,,,,,,,,,,,,,,,,,,,,,330.38825063900003,None,330.38825063900003,None,,,,,,,,,sub-25,30/03/2000,2: Female,01/11/2023,002,1: right,2023_Nov_01_1732,[FINAL]_fmri_multiplication,2021.2.3,59.987189855585534
block5.xlsx,,,,,,,,,,,,,,0,0,0,0,,,,,24,0,24,0,,,,,,,,,,,,,,,,,,,,,,,,,,,,,,,,,,,,,,331.38849848300015,None,331.38849848300015,None,,,,,,,,,sub-25,30/03/2000,2: Female,01/11/2023,002,1: right,2023_Nov_01_1732,[FINAL]_fmri_multiplication,2021.2.3,59.987189855585534
block5.xlsx,,,,,,,,,,,,,,0,0,0,0,,,,,25,0,25,0,,,,,,,,,,,,,,,,,,,,,,,,,,,,,,,,,,,,,,332.38774515900013,None,332.38774515900013,None,,,,,,,,,sub-25,30/03/2000,2: Female,01/11/2023,002,1: right,2023_Nov_01_1732,[FINAL]_fmri_multiplication,2021.2.3,59.987189855585534
block5.xlsx,,,,,,,,,,,,,,0,0,0,0,,,,,26,0,26,0,,,,,,,,,,,,,,,,,,,,,,,,,,,,,,,,,,,,,,333.39036211899975,None,333.39036211899975,None,,,,,,,,,sub-25,30/03/2000,2: Female,01/11/2023,002,1: right,2023_Nov_01_1732,[FINAL]_fmri_multiplication,2021.2.3,59.987189855585534
block5.xlsx,,,,,,,,,,,,,,0,0,0,0,,,,,27,0,27,0,,,,,,,,,,,,,,,,,,,,,,,,,,,,,,,,,,,,,,334.3880038709999,None,334.3880038709999,None,,,,,,,,,sub-25,30/03/2000,2: Female,01/11/2023,002,1: right,2023_Nov_01_1732,[FINAL]_fmri_multiplication,2021.2.3,59.987189855585534
block5.xlsx,,,,,,,,,,,,,,0,0,0,0,,,,,28,0,28,0,,,,,,,,,,,,,,,,,,,,,,,,,,,,,,,,,,,,,,335.38847809499975,None,335.38847809499975,None,,,,,,,,,sub-25,30/03/2000,2: Female,01/11/2023,002,1: right,2023_Nov_01_1732,[FINAL]_fmri_multiplication,2021.2.3,59.987189855585534
block5.xlsx,,,,,,,,,,,,,,0,0,0,0,,,,,29,0,29,0,,,,,,,,,,,,,,,,,,,,,,,,,,,,,,,,,,,,,,336.38821481000014,None,336.38821481000014,None,,,,,,,,,sub-25,30/03/2000,2: Female,01/11/2023,002,1: right,2023_Nov_01_1732,[FINAL]_fmri_multiplication,2021.2.3,59.987189855585534
block5.xlsx,,,,,,,,,,,,,,0,0,0,0,,,,,,,,,,,,,,,,,,,,,,,,,,,,,,,,,,,,,,,,,,,,,,,,,,,,,,,,,,sub-25,30/03/2000,2: Female,01/11/2023,002,1: right,2023_Nov_01_1732,[FINAL]_fmri_multiplication,2021.2.3,59.987189855585534
block6.xlsx,10,7.5,4.1,6 x 5,36,14,5 x 6 = 36,large-sized_low-interference,large-sized,low-interference,6,IncorrectRESP,d,0,1,1,1,0,0,0,0,,,,,,,,,,,,,337.40206799299995,None,347.41012586299985,None,347.8883643519998,None,349.88817585900006,None,350.6379000950001,None,350.88826744100015,None,350.88826744100015,None,a,0,0.6830474509997657,350.88826744100015,None,351.5885599489998,None,351.5885599489998,None,d,0.2708305969999856,351.5885599489998,None,351.88805405899984,None,,,,,,,,,,,,,sub-25,30/03/2000,2: Female,01/11/2023,002,1: right,2023_Nov_01_1732,[FINAL]_fmri_multiplication,2021.2.3,59.987189855585534
block6.xlsx,21.6,7.5,7.2,2 x 6,10,6,6 x 2 = 10,small-sized_low-interference,small-sized,low-interference,3,IncorrectRESP,d,0,1,1,1,0,1,1,1,,,,,,,,,,,,,,,355.98848661700004,None,356.48839541899997,None,358.4884624,None,359.23849355599987,None,359.48865395099983,None,359.48865395099983,None,a,0,0.5786453949999668,359.48865395099983,None,360.0880144759999,None,360.0880144759999,None,d,0.20326012999976228,360.0880144759999,None,360.32187237300013,None,,,,,,,,,,,,,sub-25,30/03/2000,2: Female,01/11/2023,002,1: right,2023_Nov_01_1732,[FINAL]_fmri_multiplication,2021.2.3,59.987189855585534
block6.xlsx,36.3,7.5,13.8,6 x 7,42,23,7 x 6 = 42,large-sized_high-interference,large-sized,high-interference,22,CorrectRESP,a,0,1,1,1,0,2,2,2,,,,,,,,,,,,,,,367.5217794219998,None,368.0214879750001,None,370.02138670199975,None,370.77147634999983,None,371.02180699200017,None,371.02180699200017,None,d,0,0.4775334300002214,371.02180699200017,None,371.52090689199986,None,371.52090689199986,None,d,0.40238345800025854,371.52090689199986,None,371.9548379,None,,,,,,,,,,,,,sub-25,30/03/2000,2: Female,01/11/2023,002,1: right,2023_Nov_01_1732,[FINAL]_fmri_multiplication,2021.2.3,59.987189855585534
block6.xlsx,57.6,7.5,3.7,3 x 7,21,11,7 x 3 = 21,small-sized_high-interference,small-sized,high-interference,13,CorrectRESP,a,0,1,1,1,0,3,3,3,,,,,,,,,,,,,,,385.7548119600001,None,386.25465258999975,None,388.25489975599976,None,389.0022576319998,None,389.25587508399985,None,389.25587508399985,None,d,0,0.4594839840001441,389.25587508399985,None,389.7380072,None,389.7380072,None,d,0.15327324199961367,389.7380072,None,389.92181499599974,None,,,,,,,,,,,,,sub-25,30/03/2000,2: Female,01/11/2023,002,1: right,2023_Nov_01_1732,[FINAL]_fmri_multiplication,2021.2.3,59.987189855585534
block6.xlsx,68.8,7.5,7.8,2 x 7,12,1,7 x 2 = 12,small-sized_low-interference,small-sized,low-interference,4,IncorrectRESP,d,0,1,1,1,0,4,4,4,,,,,,,,,,,,,,,393.6216274069998,None,394.1219369669998,None,396.12176292699996,None,396.8716509770002,None,397.12230937899994,None,397.12230937899994,None,a,0,0.7610241600000336,397.12230937899994,None,397.90435642500006,None,397.90435642500006,None,d,0.2670166579996476,397.90435642500006,None,398.18808918800005,None,,,,,,,,,,,,,sub-25,30/03/2000,2: Female,01/11/2023,002,1: right,2023_Nov_01_1732,[FINAL]_fmri_multiplication,2021.2.3,59.987189855585534
block6.xlsx,84.1,7.5,8.6,3 x 9,24,19,9 x 3 = 24,large-sized_high-interference,large-sized,high-interference,9,IncorrectRESP,d,0,1,1,1,0,5,5,5,,,,,,,,,,,,,,,405.98811271199975,None,406.48796893300005,None,408.48807266999984,None,409.2381034119999,None,409.48911191399975,None,409.48911191399975,None,a,0,0.6262702179997177,409.48911191399975,None,410.1375803340002,None,410.1375803340002,None,d,0.27380561800009673,410.1375803340002,None,410.4377045,None,,,,,,,,,,,,,sub-25,30/03/2000,2: Female,01/11/2023,002,1: right,2023_Nov_01_1732,[FINAL]_fmri_multiplication,2021.2.3,59.987189855585534
block6.xlsx,100.2,7.5,3.3,4 x 6,24,10,6 x 4 = 24,small-sized_high-interference,small-sized,high-interference,12,CorrectRESP,a,0,1,1,1,0,6,6,6,,,,,,,,,,,,,,,419.03809166500014,None,419.53822887700017,None,421.53829406700015,None,422.28811971999994,None,422.53857774300013,None,422.53857774300013,None,d,0,0.6648836829999709,422.53857774300013,None,423.22162913700004,None,423.22162913700004,None,d,0.18975441700013107,423.22162913700004,None,423.4380483499999,None,,,,,,,,,,,,,sub-25,30/03/2000,2: Female,01/11/2023,002,1: right,2023_Nov_01_1732,[FINAL]_fmri_multiplication,2021.2.3,59.987189855585534
block6.xlsx,111,7.5,6.3,9 x 2,16,2,2 x 9 = 16,small-sized_low-interference,small-sized,low-interference,7,IncorrectRESP,d,0,1,1,1,0,7,7,7,,,,,,,,,,,,,,,426.73864549400014,None,427.23822630199993,None,429.23831650600005,None,429.9884717159998,None,430.2383740119999,None,430.2383740119999,None,a,0,0.6289270520001082,430.2383740119999,None,430.8879170800001,None,430.8879170800001,None,d,0.21936258100004125,430.8879170800001,None,431.13845455399996,None,,,,,,,,,,,,,sub-25,30/03/2000,2: Female,01/11/2023,002,1: right,2023_Nov_01_1732,[FINAL]_fmri_multiplication,2021.2.3,59.987189855585534
block6.xlsx,124.8,7.5,3.1,6 x 6,30,13,6 x 6 = 30,large-sized_low-interference,large-sized,low-interference,4,IncorrectRESP,d,0,1,1,1,0,8,8,8,,,,,,,,,,,,,,,437.43797184000005,None,437.93811287300014,None,439.93808607899973,None,440.68807992899974,None,440.9386916610001,None,440.9386916610001,None,a,0,0.6726464719999967,440.9386916610001,None,441.6373924,None,441.6373924,None,d,0.19795790299986038,441.6373924,None,441.85423791899984,None,,,,,,,,,,,,,sub-25,30/03/2000,2: Female,01/11/2023,002,1: right,2023_Nov_01_1732,[FINAL]_fmri_multiplication,2021.2.3,59.987189855585534
block6.xlsx,135.4,7.5,2.7,5 x 4,16,8,4 x 5 = 16,small-sized_high-interference,small-sized,high-interference,8,IncorrectRESP,d,0,1,1,1,0,9,9,9,,,,,,,,,,,,,,,444.9547068699999,None,445.45471369000006,None,447.4542541699998,None,448.20450265499994,None,448.4550894,None,448.4550894,None,a,0,0.5323806760002299,448.4550894,None,449.00497880500006,None,449.00497880500006,None,d,0.19846757300001627,449.00497880500006,None,449.2208505650001,None,,,,,,,,,,,,,sub-25,30/03/2000,2: Female,01/11/2023,002,1: right,2023_Nov_01_1732,[FINAL]_fmri_multiplication,2021.2.3,59.987189855585534
block6.xlsx,145.6,7.5,5.1,5 x 5,25,3,5 x 5 = 25,small-sized_low-interference,small-sized,low-interference,3,CorrectRESP,a,0,1,1,1,0,10,10,10,,,,,,,,,,,,,,,451.9214426819999,None,452.4208904799998,None,454.4209761440002,None,455.1713467720001,None,455.4210421339999,None,455.4210421339999,None,d,0,0.5182540000000699,455.4210421339999,None,455.970501,None,455.970501,None,d,0.20080115499968088,455.970501,None,456.18706898699975,None,,,,,,,,,,,,,sub-25,30/03/2000,2: Female,01/11/2023,002,1: right,2023_Nov_01_1732,[FINAL]_fmri_multiplication,2021.2.3,59.987189855585534
block6.xlsx,158.2,7.5,2.9,7 x 7,56,18,7 x 7 = 56,large-sized_low-interference,large-sized,low-interference,7,IncorrectRESP,d,0,1,1,1,0,11,11,11,,,,,,,,,,,,,,,461.2884691129998,None,461.7884867990001,None,463.78835635999985,None,464.53902885299976,None,464.7890463829999,None,464.7890463829999,None,a,0,0.55829039,464.7890463829999,None,465.37142436299973,None,465.37142436299973,None,d,0.14386400500006857,465.37142436299973,None,465.53799840600004,None,,,,,,,,,,,,,sub-25,30/03/2000,2: Female,01/11/2023,002,1: right,2023_Nov_01_1732,[FINAL]_fmri_multiplication,2021.2.3,59.987189855585534
block6.xlsx,168.6,7.5,5.7,3 x 6,15,7,6 x 3 = 15,small-sized_high-interference,small-sized,high-interference,8,IncorrectRESP,d,0,1,1,1,0,12,12,12,,,,,,,,,,,,,,,468.4376874219997,None,468.9382275329999,None,470.9379913560001,None,471.6880241589997,None,471.9383045049999,None,471.9383045049999,None,a,0,0.4810842669999147,471.9383045049999,None,472.43769259600003,None,472.43769259600003,None,d,0.13356823799995254,472.43769259600003,None,472.6047303,None,,,,,,,,,,,,,sub-25,30/03/2000,2: Female,01/11/2023,002,1: right,2023_Nov_01_1732,[FINAL]_fmri_multiplication,2021.2.3,59.987189855585534
block6.xlsx,181.8,7.5,3,2 x 8,16,5,8 x 2 = 16,small-sized_low-interference,small-sized,low-interference,7,CorrectRESP,a,0,1,1,1,0,13,13,13,,,,,,,,,,,,,,,478.30469226700006,None,478.8047224090001,None,480.80440676299986,None,481.55471304899993,None,481.8047742250001,None,481.8047742250001,None,d,0,0.7024993830000312,481.8047742250001,None,482.53818636899996,None,482.53818636899996,None,d,0.16909018100022877,482.53818636899996,None,482.7376347549998,None,,,,,,,,,,,,,sub-25,30/03/2000,2: Female,01/11/2023,002,1: right,2023_Nov_01_1732,[FINAL]_fmri_multiplication,2021.2.3,59.987189855585534
block6.xlsx,192.3,7.5,5.9,5 x 9,45,15,9 x 5 = 45,large-sized_low-interference,large-sized,low-interference,6,CorrectRESP,a,0,1,1,1,0,14,14,14,,,,,,,,,,,,,,,485.73794224899984,None,486.2385321,None,488.23798,None,488.9875663359999,None,489.2388428959998,None,489.2388428959998,None,d,0,0.5245784450003157,489.2388428959998,None,489.7875839389999,None,489.7875839389999,None,d,0.35969578999993246,489.7875839389999,None,490.1710218610001,None,,,,,,,,,,,,,sub-25,30/03/2000,2: Female,01/11/2023,002,1: right,2023_Nov_01_1732,[FINAL]_fmri_multiplication,2021.2.3,59.987189855585534
block6.xlsx,205.7,7.5,2.1,4 x 3,12,9,3 x 4 = 12,small-sized_high-interference,small-sized,high-interference,10,CorrectRESP,a,0,1,1,1,0,15,15,15,,,,,,,,,,,,,,,496.07133023999995,None,496.57200356600015,None,498.5717123899999,None,499.3217180900001,None,499.57196892499996,None,499.57196892499996,None,d,0,0.4953944860003503,499.57196892499996,None,500.0880365,None,500.0880365,None,d,0.15534459100035747,500.0880365,None,500.27174240500017,None,,,,,,,,,,,,,sub-25,30/03/2000,2: Female,01/11/2023,002,1: right,2023_Nov_01_1732,[FINAL]_fmri_multiplication,2021.2.3,59.987189855585534
block6.xlsx,215.3,7.5,9.9,7 x 8,56,22,8 x 7 = 56,large-sized_high-interference,large-sized,high-interference,9,CorrectRESP,a,0,1,1,1,0,16,16,16,,,,,,,,,,,,,,,502.3770875959999,None,502.88814274900005,None,504.88792571199974,None,505.63804050299996,None,505.88809216599975,None,505.88809216599975,None,d,0,0.5792348420000053,505.88809216599975,None,506.4875108649999,None,506.4875108649999,None,d,0.17188648299998022,506.4875108649999,None,506.6881023619999,None,,,,,,,,,,,,,sub-25,30/03/2000,2: Female,01/11/2023,002,1: right,2023_Nov_01_1732,[FINAL]_fmri_multiplication,2021.2.3,59.987189855585534
block6.xlsx,232.7,7.5,2.2,8 x 3,21,12,3 x 8 = 21,small-sized_high-interference,small-sized,high-interference,13,IncorrectRESP,d,0,1,1,1,0,17,17,17,,,,,,,,,,,,,,,516.5880146260001,None,517.0881013120002,None,519.0875182139998,None,519.8379601,None,520.0888933880001,None,520.0888933880001,None,a,0,0.6424030349999157,520.0888933880001,None,520.7542293229999,None,520.7542293229999,None,d,0.16907276900019497,520.7542293229999,None,520.9543806,None,,,,,,,,,,,,,sub-25,30/03/2000,2: Female,01/11/2023,002,1: right,2023_Nov_01_1732,[FINAL]_fmri_multiplication,2021.2.3,59.987189855585534
block6.xlsx,242.4,7.5,7.9,9 x 9,81,16,9 x 9 = 81,large-sized_low-interference,large-sized,low-interference,6,CorrectRESP,a,0,1,1,1,0,18,18,18,,,,,,,,,,,,,,,523.1547942379998,None,523.654241,None,525.6548358629998,None,526.4048516550001,None,526.6546568809999,None,526.6546568809999,None,d,0,0.580661311,526.6546568809999,None,527.2544526,None,527.2544526,None,d,0.17293362000009438,527.2544526,None,527.4544677569997,None,,,,,,,,,,,,,sub-25,30/03/2000,2: Female,01/11/2023,002,1: right,2023_Nov_01_1732,[FINAL]_fmri_multiplication,2021.2.3,59.987189855585534
block6.xlsx,257.8,7.5,8.3,9 x 4,32,20,4 x 9 = 32,large-sized_high-interference,large-sized,high-interference,9,IncorrectRESP,d,0,1,1,1,0,19,19,19,,,,,,,,,,,,,,,535.3552420719998,None,535.8553382519999,None,537.8550510360001,None,538.6050175810001,None,538.856074,None,538.856074,None,a,0,0.5713330639996457,538.856074,None,539.4541090909997,None,539.4541090909997,None,d,0.15732419200003278,539.4541090909997,None,539.6382119,None,,,,,,,,,,,,,sub-25,30/03/2000,2: Female,01/11/2023,002,1: right,2023_Nov_01_1732,[FINAL]_fmri_multiplication,2021.2.3,59.987189855585534
block6.xlsx,273.6,7.5,12.1,5 x 7,35,17,7 x 5 = 35,large-sized_low-interference,large-sized,low-interference,7,CorrectRESP,a,0,1,1,1,0,20,20,20,,,,,,,,,,,,,,,547.9383053309998,None,548.4382716559999,None,550.4380005809999,None,551.1879997,None,551.4380867129998,None,551.4380867129998,None,d,0,0.6133304099998895,551.4380867129998,None,552.0708848250001,None,552.0708848250001,None,d,0.1884945090000656,552.0708848250001,None,552.2880983,None,,,,,,,,,,,,,sub-25,30/03/2000,2: Female,01/11/2023,002,1: right,2023_Nov_01_1732,[FINAL]_fmri_multiplication,2021.2.3,59.987189855585534
block6.xlsx,293.2,7.5,4.1,4 x 8,28,24,8 x 4 = 28,large-sized_high-interference,large-sized,high-interference,25,IncorrectRESP,d,0,1,1,1,0,21,21,21,,,,,,,,,,,,,,,564.3881778159998,None,564.889948,None,566.9051695210001,None,567.6550624689999,None,567.9049559290002,None,567.9049559290002,None,a,0,0.6263590499997918,567.9049559290002,None,568.5546037529998,None,568.5546037529998,None,d,0.19268446399973982,568.5546037529998,None,568.7712203,None,,,,,,,,,,,,,sub-25,30/03/2000,2: Female,01/11/2023,002,1: right,2023_Nov_01_1732,[FINAL]_fmri_multiplication,2021.2.3,59.987189855585534
block6.xlsx,304.8,7.5,6.7,4 x 4,16,4,4 x 4 = 16,small-sized_low-interference,small-sized,low-interference,5,CorrectRESP,a,0,1,1,1,0,22,22,22,,,,,,,,,,,,,,,572.8715925410002,None,573.3716587509998,None,575.3716030289997,None,576.1214750680001,None,576.3714066160001,None,576.3714066160001,None,d,0,0.5518688249999286,576.3714066160001,None,576.9548846,None,576.9548846,None,d,0.35240521700006866,576.9548846,None,577.3380057079999,None,,,,,,,,,,,,,sub-25,30/03/2000,2: Female,01/11/2023,002,1: right,2023_Nov_01_1732,[FINAL]_fmri_multiplication,2021.2.3,59.987189855585534
block6.xlsx,319,7.5,8.5,8 x 5,40,21,5 x 8 = 40,large-sized_high-interference,large-sized,high-interference,9,CorrectRESP,a,0,1,1,1,0,23,23,23,,,,,,,,,,,,,,,584.0379158,None,584.5388725739999,None,586.5380994900001,None,587.2875725,None,587.5388148749998,None,587.5388148749998,None,d,0,0.4085610529996302,587.5388148749998,None,587.9709409249999,None,587.9709409249999,None,d,0.16036046699991857,587.9709409249999,None,588.1542795,None,,,,,,,,,,,,,sub-25,30/03/2000,2: Female,01/11/2023,002,1: right,2023_Nov_01_1732,[FINAL]_fmri_multiplication,2021.2.3,59.987189855585534
block6.xlsx,,,,,,,,,,,,,,0,1,1,1,,,,,0,0,0,0,,,,,,,,,,,,,,,,,,,,,,,,,,,,,,,,,,,,,,596.6572309210001,None,596.6572309210001,None,,,,,,,,,sub-25,30/03/2000,2: Female,01/11/2023,002,1: right,2023_Nov_01_1732,[FINAL]_fmri_multiplication,2021.2.3,59.987189855585534
block6.xlsx,,,,,,,,,,,,,,0,1,1,1,,,,,1,0,1,0,,,,,,,,,,,,,,,,,,,,,,,,,,,,,,,,,,,,,,597.6741335,None,597.6741335,None,,,,,,,,,sub-25,30/03/2000,2: Female,01/11/2023,002,1: right,2023_Nov_01_1732,[FINAL]_fmri_multiplication,2021.2.3,59.987189855585534
block6.xlsx,,,,,,,,,,,,,,0,1,1,1,,,,,2,0,2,0,,,,,,,,,,,,,,,,,,,,,,,,,,,,,,,,,,,,,,598.6721545609998,None,598.6721545609998,None,,,,,,,,,sub-25,30/03/2000,2: Female,01/11/2023,002,1: right,2023_Nov_01_1732,[FINAL]_fmri_multiplication,2021.2.3,59.987189855585534
block6.xlsx,,,,,,,,,,,,,,0,1,1,1,,,,,3,0,3,0,,,,,,,,,,,,,,,,,,,,,,,,,,,,,,,,,,,,,,599.6587862679999,None,599.6587862679999,None,,,,,,,,,sub-25,30/03/2000,2: Female,01/11/2023,002,1: right,2023_Nov_01_1732,[FINAL]_fmri_multiplication,2021.2.3,59.987189855585534
block6.xlsx,,,,,,,,,,,,,,0,1,1,1,,,,,4,0,4,0,,,,,,,,,,,,,,,,,,,,,,,,,,,,,,,,,,,,,,600.6726223659998,None,600.6726223659998,None,,,,,,,,,sub-25,30/03/2000,2: Female,01/11/2023,002,1: right,2023_Nov_01_1732,[FINAL]_fmri_multiplication,2021.2.3,59.987189855585534
block6.xlsx,,,,,,,,,,,,,,0,1,1,1,,,,,5,0,5,0,,,,,,,,,,,,,,,,,,,,,,,,,,,,,,,,,,,,,,601.6731694760001,None,601.6731694760001,None,,,,,,,,,sub-25,30/03/2000,2: Female,01/11/2023,002,1: right,2023_Nov_01_1732,[FINAL]_fmri_multiplication,2021.2.3,59.987189855585534
block6.xlsx,,,,,,,,,,,,,,0,1,1,1,,,,,6,0,6,0,,,,,,,,,,,,,,,,,,,,,,,,,,,,,,,,,,,,,,602.6745135400001,None,602.6745135400001,None,,,,,,,,,sub-25,30/03/2000,2: Female,01/11/2023,002,1: right,2023_Nov_01_1732,[FINAL]_fmri_multiplication,2021.2.3,59.987189855585534
block6.xlsx,,,,,,,,,,,,,,0,1,1,1,,,,,7,0,7,0,,,,,,,,,,,,,,,,,,,,,,,,,,,,,,,,,,,,,,603.6745380329999,None,603.6745380329999,None,,,,,,,,,sub-25,30/03/2000,2: Female,01/11/2023,002,1: right,2023_Nov_01_1732,[FINAL]_fmri_multiplication,2021.2.3,59.987189855585534
block6.xlsx,,,,,,,,,,,,,,0,1,1,1,,,,,8,0,8,0,,,,,,,,,,,,,,,,,,,,,,,,,,,,,,,,,,,,,,604.6744082079999,None,604.6744082079999,None,,,,,,,,,sub-25,30/03/2000,2: Female,01/11/2023,002,1: right,2023_Nov_01_1732,[FINAL]_fmri_multiplication,2021.2.3,59.987189855585534
block6.xlsx,,,,,,,,,,,,,,0,1,1,1,,,,,9,0,9,0,,,,,,,,,,,,,,,,,,,,,,,,,,,,,,,,,,,,,,605.6713739480001,None,605.6713739480001,None,,,,,,,,,sub-25,30/03/2000,2: Female,01/11/2023,002,1: right,2023_Nov_01_1732,[FINAL]_fmri_multiplication,2021.2.3,59.987189855585534
block6.xlsx,,,,,,,,,,,,,,0,1,1,1,,,,,10,0,10,0,,,,,,,,,,,,,,,,,,,,,,,,,,,,,,,,,,,,,,606.6723783,None,606.6723783,None,,,,,,,,,sub-25,30/03/2000,2: Female,01/11/2023,002,1: right,2023_Nov_01_1732,[FINAL]_fmri_multiplication,2021.2.3,59.987189855585534
block6.xlsx,,,,,,,,,,,,,,0,1,1,1,,,,,11,0,11,0,,,,,,,,,,,,,,,,,,,,,,,,,,,,,,,,,,,,,,607.6722558799997,None,607.6722558799997,None,,,,,,,,,sub-25,30/03/2000,2: Female,01/11/2023,002,1: right,2023_Nov_01_1732,[FINAL]_fmri_multiplication,2021.2.3,59.987189855585534
block6.xlsx,,,,,,,,,,,,,,0,1,1,1,,,,,12,0,12,0,,,,,,,,,,,,,,,,,,,,,,,,,,,,,,,,,,,,,,608.6717288,None,608.6717288,None,,,,,,,,,sub-25,30/03/2000,2: Female,01/11/2023,002,1: right,2023_Nov_01_1732,[FINAL]_fmri_multiplication,2021.2.3,59.987189855585534
block6.xlsx,,,,,,,,,,,,,,0,1,1,1,,,,,13,0,13,0,,,,,,,,,,,,,,,,,,,,,,,,,,,,,,,,,,,,,,609.6713026960001,None,609.6713026960001,None,,,,,,,,,sub-25,30/03/2000,2: Female,01/11/2023,002,1: right,2023_Nov_01_1732,[FINAL]_fmri_multiplication,2021.2.3,59.987189855585534
block6.xlsx,,,,,,,,,,,,,,0,1,1,1,,,,,14,0,14,0,,,,,,,,,,,,,,,,,,,,,,,,,,,,,,,,,,,,,,610.6715014,None,610.6715014,None,,,,,,,,,sub-25,30/03/2000,2: Female,01/11/2023,002,1: right,2023_Nov_01_1732,[FINAL]_fmri_multiplication,2021.2.3,59.987189855585534
block6.xlsx,,,,,,,,,,,,,,0,1,1,1,,,,,15,0,15,0,,,,,,,,,,,,,,,,,,,,,,,,,,,,,,,,,,,,,,611.6718880079998,None,611.6718880079998,None,,,,,,,,,sub-25,30/03/2000,2: Female,01/11/2023,002,1: right,2023_Nov_01_1732,[FINAL]_fmri_multiplication,2021.2.3,59.987189855585534
block6.xlsx,,,,,,,,,,,,,,0,1,1,1,,,,,16,0,16,0,,,,,,,,,,,,,,,,,,,,,,,,,,,,,,,,,,,,,,612.6726361239998,None,612.6726361239998,None,,,,,,,,,sub-25,30/03/2000,2: Female,01/11/2023,002,1: right,2023_Nov_01_1732,[FINAL]_fmri_multiplication,2021.2.3,59.987189855585534
block6.xlsx,,,,,,,,,,,,,,0,1,1,1,,,,,17,0,17,0,,,,,,,,,,,,,,,,,,,,,,,,,,,,,,,,,,,,,,613.6720956469999,None,613.6720956469999,None,,,,,,,,,sub-25,30/03/2000,2: Female,01/11/2023,002,1: right,2023_Nov_01_1732,[FINAL]_fmri_multiplication,2021.2.3,59.987189855585534
block6.xlsx,,,,,,,,,,,,,,0,1,1,1,,,,,18,0,18,0,,,,,,,,,,,,,,,,,,,,,,,,,,,,,,,,,,,,,,614.6728976439999,None,614.6728976439999,None,,,,,,,,,sub-25,30/03/2000,2: Female,01/11/2023,002,1: right,2023_Nov_01_1732,[FINAL]_fmri_multiplication,2021.2.3,59.987189855585534
block6.xlsx,,,,,,,,,,,,,,0,1,1,1,,,,,19,0,19,0,,,,,,,,,,,,,,,,,,,,,,,,,,,,,,,,,,,,,,615.6716639289998,None,615.6716639289998,None,,,,,,,,,sub-25,30/03/2000,2: Female,01/11/2023,002,1: right,2023_Nov_01_1732,[FINAL]_fmri_multiplication,2021.2.3,59.987189855585534
block6.xlsx,,,,,,,,,,,,,,0,1,1,1,,,,,20,0,20,0,,,,,,,,,,,,,,,,,,,,,,,,,,,,,,,,,,,,,,616.6715808690001,None,616.6715808690001,None,,,,,,,,,sub-25,30/03/2000,2: Female,01/11/2023,002,1: right,2023_Nov_01_1732,[FINAL]_fmri_multiplication,2021.2.3,59.987189855585534
block6.xlsx,,,,,,,,,,,,,,0,1,1,1,,,,,21,0,21,0,,,,,,,,,,,,,,,,,,,,,,,,,,,,,,,,,,,,,,617.6726081900001,None,617.6726081900001,None,,,,,,,,,sub-25,30/03/2000,2: Female,01/11/2023,002,1: right,2023_Nov_01_1732,[FINAL]_fmri_multiplication,2021.2.3,59.987189855585534
block6.xlsx,,,,,,,,,,,,,,0,1,1,1,,,,,22,0,22,0,,,,,,,,,,,,,,,,,,,,,,,,,,,,,,,,,,,,,,618.6716046,None,618.6716046,None,,,,,,,,,sub-25,30/03/2000,2: Female,01/11/2023,002,1: right,2023_Nov_01_1732,[FINAL]_fmri_multiplication,2021.2.3,59.987189855585534
block6.xlsx,,,,,,,,,,,,,,0,1,1,1,,,,,23,0,23,0,,,,,,,,,,,,,,,,,,,,,,,,,,,,,,,,,,,,,,619.6713389289998,None,619.6713389289998,None,,,,,,,,,sub-25,30/03/2000,2: Female,01/11/2023,002,1: right,2023_Nov_01_1732,[FINAL]_fmri_multiplication,2021.2.3,59.987189855585534
block6.xlsx,,,,,,,,,,,,,,0,1,1,1,,,,,24,0,24,0,,,,,,,,,,,,,,,,,,,,,,,,,,,,,,,,,,,,,,620.6717071,None,620.6717071,None,,,,,,,,,sub-25,30/03/2000,2: Female,01/11/2023,002,1: right,2023_Nov_01_1732,[FINAL]_fmri_multiplication,2021.2.3,59.987189855585534
block6.xlsx,,,,,,,,,,,,,,0,1,1,1,,,,,25,0,25,0,,,,,,,,,,,,,,,,,,,,,,,,,,,,,,,,,,,,,,621.6714784739997,None,621.6714784739997,None,,,,,,,,,sub-25,30/03/2000,2: Female,01/11/2023,002,1: right,2023_Nov_01_1732,[FINAL]_fmri_multiplication,2021.2.3,59.987189855585534
block6.xlsx,,,,,,,,,,,,,,0,1,1,1,,,,,26,0,26,0,,,,,,,,,,,,,,,,,,,,,,,,,,,,,,,,,,,,,,622.6714148,None,622.6714148,None,,,,,,,,,sub-25,30/03/2000,2: Female,01/11/2023,002,1: right,2023_Nov_01_1732,[FINAL]_fmri_multiplication,2021.2.3,59.987189855585534
block6.xlsx,,,,,,,,,,,,,,0,1,1,1,,,,,27,0,27,0,,,,,,,,,,,,,,,,,,,,,,,,,,,,,,,,,,,,,,623.6711495760001,None,623.6711495760001,None,,,,,,,,,sub-25,30/03/2000,2: Female,01/11/2023,002,1: right,2023_Nov_01_1732,[FINAL]_fmri_multiplication,2021.2.3,59.987189855585534
block6.xlsx,,,,,,,,,,,,,,0,1,1,1,,,,,28,0,28,0,,,,,,,,,,,,,,,,,,,,,,,,,,,,,,,,,,,,,,624.6716079459998,None,624.6716079459998,None,,,,,,,,,sub-25,30/03/2000,2: Female,01/11/2023,002,1: right,2023_Nov_01_1732,[FINAL]_fmri_multiplication,2021.2.3,59.987189855585534
block6.xlsx,,,,,,,,,,,,,,0,1,1,1,,,,,29,0,29,0,,,,,,,,,,,,,,,,,,,,,,,,,,,,,,,,,,,,,,625.6719824809998,None,625.6719824809998,None,,,,,,,,,sub-25,30/03/2000,2: Female,01/11/2023,002,1: right,2023_Nov_01_1732,[FINAL]_fmri_multiplication,2021.2.3,59.987189855585534
block6.xlsx,,,,,,,,,,,,,,0,1,1,1,,,,,,,,,,,,,,,,,,,,,,,,,,,,,,,,,,,,,,,,,,,,,,,,,,,,,,,,,,sub-25,30/03/2000,2: Female,01/11/2023,002,1: right,2023_Nov_01_1732,[FINAL]_fmri_multiplication,2021.2.3,59.987189855585534
block7.xlsx,10,7.5,4,2 x 7,14,1,7 x 2 = 14,small-sized_low-interference,small-sized,low-interference,4,CorrectRESP,a,0,2,2,2,0,0,0,0,,,,,,,,,,,,,626.6727937410001,None,636.6952165049997,None,637.1721005650002,None,639.1717425669999,None,639.9218651,None,640.1720145200002,None,640.1720145200002,None,d,0,0.4953244270000141,640.1720145200002,None,640.6884693440002,None,640.6884693440002,None,d,0.17091479800001252,640.6884693440002,None,640.8885168799998,None,,,,,,,,,,,,,sub-25,30/03/2000,2: Female,01/11/2023,002,1: right,2023_Nov_01_1732,[FINAL]_fmri_multiplication,2021.2.3,59.987189855585534
block7.xlsx,21.5,7.5,14.2,3 x 6,15,7,6 x 3 = 15,small-sized_high-interference,small-sized,high-interference,8,IncorrectRESP,d,0,2,2,2,0,1,1,1,,,,,,,,,,,,,,,644.8882979,None,645.3879810230001,None,647.3881699459998,None,648.1381171749999,None,648.3879525009997,None,648.3879525009997,None,a,0,0.5913724330002879,648.3879525009997,None,649.0041697,None,649.0041697,None,d,0.1511094059997049,649.0041697,None,649.1882605360001,None,,,,,,,,,,,,,sub-25,30/03/2000,2: Female,01/11/2023,002,1: right,2023_Nov_01_1732,[FINAL]_fmri_multiplication,2021.2.3,59.987189855585534
block7.xlsx,43.2,7.5,5.1,2 x 7,12,1,7 x 2 = 12,small-sized_low-interference,small-sized,low-interference,4,IncorrectRESP,d,0,2,2,2,0,2,2,2,,,,,,,,,,,,,,,663.3880264449999,None,663.8870647419999,None,665.887145,None,666.6381169840001,None,666.8888745179997,None,666.8888745179997,None,a,0,0.5465665729998364,666.8888745179997,None,667.4544430380001,None,667.4544430380001,None,d,0.13296023500015508,667.4544430380001,None,667.6036482240002,None,,,,,,,,,,,,,sub-25,30/03/2000,2: Female,01/11/2023,002,1: right,2023_Nov_01_1732,[FINAL]_fmri_multiplication,2021.2.3,59.987189855585534
block7.xlsx,55.8,7.5,3.4,5 x 9,40,15,9 x 5 = 40,large-sized_low-interference,large-sized,low-interference,6,IncorrectRESP,d,0,2,2,2,0,3,3,3,,,,,,,,,,,,,,,672.7051410710001,None,673.2049316960001,None,675.2050384260001,None,675.9550923,None,676.2066737509999,None,676.2066737509999,None,a,0,0.5968096820001847,676.2066737509999,None,676.8216416609998,None,676.8216416609998,None,d,0.16575900099996943,676.8216416609998,None,677.0042970760001,None,,,,,,,,,,,,,sub-25,30/03/2000,2: Female,01/11/2023,002,1: right,2023_Nov_01_1732,[FINAL]_fmri_multiplication,2021.2.3,59.987189855585534
block7.xlsx,66.7,7.5,2.9,5 x 5,30,3,5 x 5 = 30,small-sized_low-interference,small-sized,low-interference,3,IncorrectRESP,d,0,2,2,2,0,4,4,4,,,,,,,,,,,,,,,680.4045801709999,None,680.9047176,None,682.9047301,None,683.6546913980001,None,683.9048414640001,None,683.9048414640001,None,a,0,0.6745375250002326,683.9048414640001,None,684.6045223,None,684.6045223,None,d,0.1828900679997787,684.6045223,None,684.8042778260001,None,,,,,,,,,,,,,sub-25,30/03/2000,2: Female,01/11/2023,002,1: right,2023_Nov_01_1732,[FINAL]_fmri_multiplication,2021.2.3,59.987189855585534
block7.xlsx,77.1,7.5,13.9,5 x 7,40,17,7 x 5 = 40,large-sized_low-interference,large-sized,low-interference,7,IncorrectRESP,d,0,2,2,2,0,5,5,5,,,,,,,,,,,,,,,687.7048316820001,None,688.2046350159999,None,690.2048163,None,690.9548497619999,None,691.2052789949998,None,691.2052789949998,None,a,0,0.566012272,691.2052789949998,None,691.8047360169999,None,691.8047360169999,None,d,0.094557909,691.8047360169999,None,691.9205039959998,None,,,,,,,,,,,,,sub-25,30/03/2000,2: Female,01/11/2023,002,1: right,2023_Nov_01_1732,[FINAL]_fmri_multiplication,2021.2.3,59.987189855585534
block7.xlsx,98.5,7.5,2.6,2 x 8,16,5,8 x 2 = 16,small-sized_low-interference,small-sized,low-interference,7,CorrectRESP,a,0,2,2,2,0,6,6,6,,,,,,,,,,,,,,,705.8191423640001,None,706.3148872,None,708.3219070380001,None,709.0717832380001,None,709.3219137779997,None,709.3219137779997,None,d,0,0.5534788330000993,709.3219137779997,None,709.9040851099999,None,709.9040851099999,None,d,0.17109229600009712,709.9040851099999,None,710.1052869079999,None,,,,,,,,,,,,,sub-25,30/03/2000,2: Female,01/11/2023,002,1: right,2023_Nov_01_1732,[FINAL]_fmri_multiplication,2021.2.3,59.987189855585534
block7.xlsx,108.6,7.5,11.6,3 x 6,18,7,6 x 3 = 18,small-sized_high-interference,small-sized,high-interference,8,CorrectRESP,a,0,2,2,2,0,7,7,7,,,,,,,,,,,,,,,712.7050214,None,713.2056943779999,None,715.2215187289999,None,715.9713344799998,None,716.2214360399998,None,716.2214360399998,None,d,0,1.6619122460001563,716.2214360399998,None,717.9042482,None,717.9042482,None,d,0.27514090199974817,717.9042482,None,718.2046894310001,None,,,,,,,,,,,,,sub-25,30/03/2000,2: Female,01/11/2023,002,1: right,2023_Nov_01_1732,[FINAL]_fmri_multiplication,2021.2.3,59.987189855585534
block7.xlsx,127.7,7.5,5,5 x 5,25,3,5 x 5 = 25,small-sized_low-interference,small-sized,low-interference,3,CorrectRESP,a,0,2,2,2,0,8,8,8,,,,,,,,,,,,,,,729.8041931560001,None,730.3046489769999,None,732.3045693079998,None,733.0546806,None,733.3056671,None,733.3056671,None,d,0,0.4977109639999071,733.3056671,None,733.8210968980002,None,733.8210968980002,None,d,0.14231631000029665,733.8210968980002,None,733.9875119059998,None,,,,,,,,,,,,,sub-25,30/03/2000,2: Female,01/11/2023,002,1: right,2023_Nov_01_1732,[FINAL]_fmri_multiplication,2021.2.3,59.987189855585534
block7.xlsx,140.2,7.5,2.8,6 x 6,36,13,6 x 6 = 36,large-sized_low-interference,large-sized,low-interference,4,CorrectRESP,a,0,2,2,2,0,9,9,9,,,,,,,,,,,,,,,738.9882025419997,None,739.4885669179998,None,741.4885778349999,None,742.2384333,None,742.4885850129999,None,742.4885850129999,None,d,0,0.9228204189998905,742.4885850129999,None,743.4382215,None,743.4382215,None,d,0.14919275600004767,743.4382215,None,743.6046708,None,,,,,,,,,,,,,sub-25,30/03/2000,2: Female,01/11/2023,002,1: right,2023_Nov_01_1732,[FINAL]_fmri_multiplication,2021.2.3,59.987189855585534
block7.xlsx,150.5,7.5,2,3 x 7,21,11,7 x 3 = 21,small-sized_high-interference,small-sized,high-interference,13,CorrectRESP,a,0,2,2,2,0,10,10,10,,,,,,,,,,,,,,,746.4051445,None,746.9049850369997,None,748.9050775619999,None,749.6547846809999,None,749.9049979480001,None,749.9049979480001,None,d,0,0.47439412799985803,749.9049979480001,None,750.4042226470001,None,750.4042226470001,None,d,0.16715270599979704,750.4042226470001,None,750.5880505,None,,,,,,,,,,,,,sub-25,30/03/2000,2: Female,01/11/2023,002,1: right,2023_Nov_01_1732,[FINAL]_fmri_multiplication,2021.2.3,59.987189855585534
block7.xlsx,160,7.5,2.7,6 x 7,48,23,7 x 6 = 48,large-sized_high-interference,large-sized,high-interference,22,IncorrectRESP,d,0,2,2,2,0,11,11,11,,,,,,,,,,,,,,,752.5881348,None,753.0884494409997,None,755.0881924390001,None,755.8378684129998,None,756.0884450190001,None,756.0884450190001,None,a,0,0.4909362019998298,756.0884450190001,None,756.6041943649998,None,756.6041943649998,None,d,0.1831890530002056,756.6041943649998,None,756.8042501,None,,,,,,,,,,,,,sub-25,30/03/2000,2: Female,01/11/2023,002,1: right,2023_Nov_01_1732,[FINAL]_fmri_multiplication,2021.2.3,59.987189855585534
block7.xlsx,170.2,7.5,7,5 x 7,35,17,7 x 5 = 35,large-sized_low-interference,large-sized,low-interference,7,CorrectRESP,a,0,2,2,2,0,12,12,12,,,,,,,,,,,,,,,759.5046941,None,760.0051335,None,762.0046315230002,None,762.7546480609999,None,763.0048153029998,None,763.0048153029998,None,d,0,0.5184819179999067,763.0048153029998,None,763.5548074190001,None,763.5548074190001,None,d,0.1524790309999844,763.5548074190001,None,763.7376121809998,None,,,,,,,,,,,,,sub-25,30/03/2000,2: Female,01/11/2023,002,1: right,2023_Nov_01_1732,[FINAL]_fmri_multiplication,2021.2.3,59.987189855585534
block7.xlsx,184.7,7.5,3,3 x 9,27,19,9 x 3 = 27,large-sized_high-interference,large-sized,high-interference,9,CorrectRESP,a,0,2,2,2,0,13,13,13,,,,,,,,,,,,,,,770.7381463050001,None,771.2373635919998,None,773.2384909819998,None,773.9880069,None,774.2386969139998,None,774.2386969139998,None,d,0,0.44460294000009526,774.2386969139998,None,774.7045563679999,None,774.7045563679999,None,d,0.16276176100018347,774.7045563679999,None,774.8879037399997,None,,,,,,,,,,,,,sub-25,30/03/2000,2: Female,01/11/2023,002,1: right,2023_Nov_01_1732,[FINAL]_fmri_multiplication,2021.2.3,59.987189855585534
block7.xlsx,195.2,7.5,7.1,4 x 3,15,9,3 x 4 = 15,small-sized_high-interference,small-sized,high-interference,10,IncorrectRESP,d,0,2,2,2,0,14,14,14,,,,,,,,,,,,,,,777.8886008320001,None,778.3885792289998,None,780.3883343,None,781.1384506,None,781.3887074009999,None,781.3887074009999,None,a,0,0.5747236050001447,781.3887074009999,None,781.9879797789999,None,781.9879797789999,None,d,0.18342505400005393,781.9879797789999,None,782.1879680409997,None,,,,,,,,,,,,,sub-25,30/03/2000,2: Female,01/11/2023,002,1: right,2023_Nov_01_1732,[FINAL]_fmri_multiplication,2021.2.3,59.987189855585534
block7.xlsx,209.8,7.5,3.9,2 x 8,18,5,8 x 2 = 18,small-sized_low-interference,small-sized,low-interference,7,IncorrectRESP,d,0,2,2,2,0,15,15,15,,,,,,,,,,,,,,,789.2882668679999,None,789.7880179680001,None,791.7879872799999,None,792.5380221,None,792.7882278379998,None,792.7882278379998,None,a,0,0.6071494259999781,792.7882278379998,None,793.4212223879999,None,793.4212223879999,None,d,0.15004870599977949,793.4212223879999,None,793.604685,None,,,,,,,,,,,,,sub-25,30/03/2000,2: Female,01/11/2023,002,1: right,2023_Nov_01_1732,[FINAL]_fmri_multiplication,2021.2.3,59.987189855585534
block7.xlsx,221.2,7.5,13.2,8 x 5,40,21,5 x 8 = 40,large-sized_high-interference,large-sized,high-interference,9,CorrectRESP,a,0,2,2,2,0,16,16,16,,,,,,,,,,,,,,,797.5048129679999,None,798.0043303299999,None,800.0047032,None,800.7545868249999,None,801.0047638319998,None,801.0047638319998,None,d,0,0.4785518469998351,801.0047638319998,None,801.5045965220002,None,801.5045965220002,None,d,0.14679018300012103,801.5045965220002,None,801.6709122869997,None,,,,,,,,,,,,,sub-25,30/03/2000,2: Female,01/11/2023,002,1: right,2023_Nov_01_1732,[FINAL]_fmri_multiplication,2021.2.3,59.987189855585534
block7.xlsx,241.9,7.5,8.7,3 x 7,24,11,7 x 3 = 24,small-sized_high-interference,small-sized,high-interference,13,IncorrectRESP,d,0,2,2,2,0,17,17,17,,,,,,,,,,,,,,,814.8718417539999,None,815.3718313599998,None,817.3717226399999,None,818.1217192700001,None,818.3719613200001,None,818.3719613200001,None,a,0,0.5593321430001197,818.3719613200001,None,818.9542583500001,None,818.9542583500001,None,d,0.20102336100035245,818.9542583500001,None,819.1882012729998,None,,,,,,,,,,,,,sub-25,30/03/2000,2: Female,01/11/2023,002,1: right,2023_Nov_01_1732,[FINAL]_fmri_multiplication,2021.2.3,59.987189855585534
block7.xlsx,258.1,7.5,8.1,6 x 6,30,13,6 x 6 = 30,large-sized_low-interference,large-sized,low-interference,4,IncorrectRESP,d,0,2,2,2,0,18,18,18,,,,,,,,,,,,,,,827.8873915869999,None,828.3882240029998,None,830.3880970249998,None,831.1380419520001,None,831.3882886,None,831.3882886,None,a,0,0.5271108900001309,831.3882886,None,831.9375915669998,None,831.9375915669998,None,d,0.16171138000026986,831.9375915669998,None,832.1208479,None,,,,,,,,,,,,,sub-25,30/03/2000,2: Female,01/11/2023,002,1: right,2023_Nov_01_1732,[FINAL]_fmri_multiplication,2021.2.3,59.987189855585534
block7.xlsx,273.7,7.5,8.2,8 x 5,45,21,5 x 8 = 45,large-sized_high-interference,large-sized,high-interference,9,IncorrectRESP,d,0,2,2,2,0,19,19,19,,,,,,,,,,,,,,,840.2213739,None,840.7219633639997,None,842.7216016409998,None,843.4715533429999,None,843.7220608,None,843.7220608,None,a,0,0.4973582979996536,843.7220608,None,844.2383654,None,844.2383654,None,d,0.13306865200001994,844.2383654,None,844.3878129,None,,,,,,,,,,,,,sub-25,30/03/2000,2: Female,01/11/2023,002,1: right,2023_Nov_01_1732,[FINAL]_fmri_multiplication,2021.2.3,59.987189855585534
block7.xlsx,289.4,7.5,5.5,4 x 3,12,9,3 x 4 = 12,small-sized_high-interference,small-sized,high-interference,10,CorrectRESP,a,0,2,2,2,0,20,20,20,,,,,,,,,,,,,,,852.5884093629998,None,853.0884468999998,None,855.0882917700001,None,855.8382719370002,None,856.0884593860001,None,856.0884593860001,None,d,0,0.4668247690001408,856.0884593860001,None,856.5864019299997,None,856.5864019299997,None,d,0.17676463699990563,856.5864019299997,None,856.7876443,None,,,,,,,,,,,,,sub-25,30/03/2000,2: Female,01/11/2023,002,1: right,2023_Nov_01_1732,[FINAL]_fmri_multiplication,2021.2.3,59.987189855585534
block7.xlsx,302.4,7.5,4.8,3 x 9,24,19,9 x 3 = 24,large-sized_high-interference,large-sized,high-interference,9,IncorrectRESP,d,0,2,2,2,0,21,21,21,,,,,,,,,,,,,,,862.2880145,None,862.7868374659997,None,864.7880921,None,865.5381042839999,None,865.7879614459998,None,865.7879614459998,None,a,0,0.6634001259999422,865.7879614459998,None,866.4710337649999,None,866.4710337649999,None,d,0.16434805900007632,866.4710337649999,None,866.6543026710001,None,,,,,,,,,,,,,sub-25,30/03/2000,2: Female,01/11/2023,002,1: right,2023_Nov_01_1732,[FINAL]_fmri_multiplication,2021.2.3,59.987189855585534
block7.xlsx,314.7,7.5,2.5,5 x 9,45,15,9 x 5 = 45,large-sized_low-interference,large-sized,low-interference,6,CorrectRESP,a,0,2,2,2,0,22,22,22,,,,,,,,,,,,,,,871.4546437210001,None,871.9553059179998,None,873.9549222,None,874.7046897649998,None,874.9555716979999,None,874.9555716979999,None,d,0,0.48780533499984813,874.9555716979999,None,875.4709461299999,None,875.4709461299999,None,d,0.14841870000009294,875.4709461299999,None,875.6375651580001,None,,,,,,,,,,,,,sub-25,30/03/2000,2: Female,01/11/2023,002,1: right,2023_Nov_01_1732,[FINAL]_fmri_multiplication,2021.2.3,59.987189855585534
block7.xlsx,324.7,7.5,2.8,6 x 7,42,23,7 x 6 = 42,large-sized_high-interference,large-sized,high-interference,22,CorrectRESP,a,0,2,2,2,0,23,23,23,,,,,,,,,,,,,,,878.1381241,None,878.6386777,None,880.6383113319998,None,881.3884555300001,None,881.6386045479999,None,881.6386045479999,None,d,0,0.4607979620000151,881.6386045479999,None,882.1215639940001,None,882.1215639940001,None,d,0.15371774799996274,882.1215639940001,None,882.3052220579998,None,,,,,,,,,,,,,sub-25,30/03/2000,2: Female,01/11/2023,002,1: right,2023_Nov_01_1732,[FINAL]_fmri_multiplication,2021.2.3,59.987189855585534
block7.xlsx,,,,,,,,,,,,,,0,2,2,2,,,,,0,0,0,0,,,,,,,,,,,,,,,,,,,,,,,,,,,,,,,,,,,,,,885.1062297190001,None,885.1062297190001,None,,,,,,,,,sub-25,30/03/2000,2: Female,01/11/2023,002,1: right,2023_Nov_01_1732,[FINAL]_fmri_multiplication,2021.2.3,59.987189855585534
block7.xlsx,,,,,,,,,,,,,,0,2,2,2,,,,,1,0,1,0,,,,,,,,,,,,,,,,,,,,,,,,,,,,,,,,,,,,,,886.1220115219999,None,886.1220115219999,None,,,,,,,,,sub-25,30/03/2000,2: Female,01/11/2023,002,1: right,2023_Nov_01_1732,[FINAL]_fmri_multiplication,2021.2.3,59.987189855585534
block7.xlsx,,,,,,,,,,,,,,0,2,2,2,,,,,2,0,2,0,,,,,,,,,,,,,,,,,,,,,,,,,,,,,,,,,,,,,,887.1228308119998,None,887.1228308119998,None,,,,,,,,,sub-25,30/03/2000,2: Female,01/11/2023,002,1: right,2023_Nov_01_1732,[FINAL]_fmri_multiplication,2021.2.3,59.987189855585534
block7.xlsx,,,,,,,,,,,,,,0,2,2,2,,,,,3,0,3,0,,,,,,,,,,,,,,,,,,,,,,,,,,,,,,,,,,,,,,888.1359602789998,None,888.1359602789998,None,,,,,,,,,sub-25,30/03/2000,2: Female,01/11/2023,002,1: right,2023_Nov_01_1732,[FINAL]_fmri_multiplication,2021.2.3,59.987189855585534
block7.xlsx,,,,,,,,,,,,,,0,2,2,2,,,,,4,0,4,0,,,,,,,,,,,,,,,,,,,,,,,,,,,,,,,,,,,,,,889.1217382710001,None,889.1217382710001,None,,,,,,,,,sub-25,30/03/2000,2: Female,01/11/2023,002,1: right,2023_Nov_01_1732,[FINAL]_fmri_multiplication,2021.2.3,59.987189855585534
block7.xlsx,,,,,,,,,,,,,,0,2,2,2,,,,,5,0,5,0,,,,,,,,,,,,,,,,,,,,,,,,,,,,,,,,,,,,,,890.1221043109999,None,890.1221043109999,None,,,,,,,,,sub-25,30/03/2000,2: Female,01/11/2023,002,1: right,2023_Nov_01_1732,[FINAL]_fmri_multiplication,2021.2.3,59.987189855585534
block7.xlsx,,,,,,,,,,,,,,0,2,2,2,,,,,6,0,6,0,,,,,,,,,,,,,,,,,,,,,,,,,,,,,,,,,,,,,,891.1221399289998,None,891.1221399289998,None,,,,,,,,,sub-25,30/03/2000,2: Female,01/11/2023,002,1: right,2023_Nov_01_1732,[FINAL]_fmri_multiplication,2021.2.3,59.987189855585534
block7.xlsx,,,,,,,,,,,,,,0,2,2,2,,,,,7,0,7,0,,,,,,,,,,,,,,,,,,,,,,,,,,,,,,,,,,,,,,892.1217115089999,None,892.1217115089999,None,,,,,,,,,sub-25,30/03/2000,2: Female,01/11/2023,002,1: right,2023_Nov_01_1732,[FINAL]_fmri_multiplication,2021.2.3,59.987189855585534
block7.xlsx,,,,,,,,,,,,,,0,2,2,2,,,,,8,0,8,0,,,,,,,,,,,,,,,,,,,,,,,,,,,,,,,,,,,,,,893.1216312289998,None,893.1216312289998,None,,,,,,,,,sub-25,30/03/2000,2: Female,01/11/2023,002,1: right,2023_Nov_01_1732,[FINAL]_fmri_multiplication,2021.2.3,59.987189855585534
block7.xlsx,,,,,,,,,,,,,,0,2,2,2,,,,,9,0,9,0,,,,,,,,,,,,,,,,,,,,,,,,,,,,,,,,,,,,,,894.1218063229999,None,894.1218063229999,None,,,,,,,,,sub-25,30/03/2000,2: Female,01/11/2023,002,1: right,2023_Nov_01_1732,[FINAL]_fmri_multiplication,2021.2.3,59.987189855585534
block7.xlsx,,,,,,,,,,,,,,0,2,2,2,,,,,10,0,10,0,,,,,,,,,,,,,,,,,,,,,,,,,,,,,,,,,,,,,,895.1222027879999,None,895.1222027879999,None,,,,,,,,,sub-25,30/03/2000,2: Female,01/11/2023,002,1: right,2023_Nov_01_1732,[FINAL]_fmri_multiplication,2021.2.3,59.987189855585534
block7.xlsx,,,,,,,,,,,,,,0,2,2,2,,,,,11,0,11,0,,,,,,,,,,,,,,,,,,,,,,,,,,,,,,,,,,,,,,896.1213327119999,None,896.1213327119999,None,,,,,,,,,sub-25,30/03/2000,2: Female,01/11/2023,002,1: right,2023_Nov_01_1732,[FINAL]_fmri_multiplication,2021.2.3,59.987189855585534
block7.xlsx,,,,,,,,,,,,,,0,2,2,2,,,,,12,0,12,0,,,,,,,,,,,,,,,,,,,,,,,,,,,,,,,,,,,,,,897.1217819180001,None,897.1217819180001,None,,,,,,,,,sub-25,30/03/2000,2: Female,01/11/2023,002,1: right,2023_Nov_01_1732,[FINAL]_fmri_multiplication,2021.2.3,59.987189855585534
block7.xlsx,,,,,,,,,,,,,,0,2,2,2,,,,,13,0,13,0,,,,,,,,,,,,,,,,,,,,,,,,,,,,,,,,,,,,,,898.1224444720001,None,898.1224444720001,None,,,,,,,,,sub-25,30/03/2000,2: Female,01/11/2023,002,1: right,2023_Nov_01_1732,[FINAL]_fmri_multiplication,2021.2.3,59.987189855585534
block7.xlsx,,,,,,,,,,,,,,0,2,2,2,,,,,14,0,14,0,,,,,,,,,,,,,,,,,,,,,,,,,,,,,,,,,,,,,,899.1216754279999,None,899.1216754279999,None,,,,,,,,,sub-25,30/03/2000,2: Female,01/11/2023,002,1: right,2023_Nov_01_1732,[FINAL]_fmri_multiplication,2021.2.3,59.987189855585534
block7.xlsx,,,,,,,,,,,,,,0,2,2,2,,,,,15,0,15,0,,,,,,,,,,,,,,,,,,,,,,,,,,,,,,,,,,,,,,900.1221389829998,None,900.1221389829998,None,,,,,,,,,sub-25,30/03/2000,2: Female,01/11/2023,002,1: right,2023_Nov_01_1732,[FINAL]_fmri_multiplication,2021.2.3,59.987189855585534
block7.xlsx,,,,,,,,,,,,,,0,2,2,2,,,,,16,0,16,0,,,,,,,,,,,,,,,,,,,,,,,,,,,,,,,,,,,,,,901.1221445,None,901.1221445,None,,,,,,,,,sub-25,30/03/2000,2: Female,01/11/2023,002,1: right,2023_Nov_01_1732,[FINAL]_fmri_multiplication,2021.2.3,59.987189855585534
block7.xlsx,,,,,,,,,,,,,,0,2,2,2,,,,,17,0,17,0,,,,,,,,,,,,,,,,,,,,,,,,,,,,,,,,,,,,,,902.1223853759998,None,902.1223853759998,None,,,,,,,,,sub-25,30/03/2000,2: Female,01/11/2023,002,1: right,2023_Nov_01_1732,[FINAL]_fmri_multiplication,2021.2.3,59.987189855585534
block7.xlsx,,,,,,,,,,,,,,0,2,2,2,,,,,18,0,18,0,,,,,,,,,,,,,,,,,,,,,,,,,,,,,,,,,,,,,,903.1223944499998,None,903.1223944499998,None,,,,,,,,,sub-25,30/03/2000,2: Female,01/11/2023,002,1: right,2023_Nov_01_1732,[FINAL]_fmri_multiplication,2021.2.3,59.987189855585534
block7.xlsx,,,,,,,,,,,,,,0,2,2,2,,,,,19,0,19,0,,,,,,,,,,,,,,,,,,,,,,,,,,,,,,,,,,,,,,904.1222938319997,None,904.1222938319997,None,,,,,,,,,sub-25,30/03/2000,2: Female,01/11/2023,002,1: right,2023_Nov_01_1732,[FINAL]_fmri_multiplication,2021.2.3,59.987189855585534
block7.xlsx,,,,,,,,,,,,,,0,2,2,2,,,,,20,0,20,0,,,,,,,,,,,,,,,,,,,,,,,,,,,,,,,,,,,,,,905.1228587,None,905.1228587,None,,,,,,,,,sub-25,30/03/2000,2: Female,01/11/2023,002,1: right,2023_Nov_01_1732,[FINAL]_fmri_multiplication,2021.2.3,59.987189855585534
block7.xlsx,,,,,,,,,,,,,,0,2,2,2,,,,,21,0,21,0,,,,,,,,,,,,,,,,,,,,,,,,,,,,,,,,,,,,,,906.1217463,None,906.1217463,None,,,,,,,,,sub-25,30/03/2000,2: Female,01/11/2023,002,1: right,2023_Nov_01_1732,[FINAL]_fmri_multiplication,2021.2.3,59.987189855585534
block7.xlsx,,,,,,,,,,,,,,0,2,2,2,,,,,22,0,22,0,,,,,,,,,,,,,,,,,,,,,,,,,,,,,,,,,,,,,,907.1217988200001,None,907.1217988200001,None,,,,,,,,,sub-25,30/03/2000,2: Female,01/11/2023,002,1: right,2023_Nov_01_1732,[FINAL]_fmri_multiplication,2021.2.3,59.987189855585534
block7.xlsx,,,,,,,,,,,,,,0,2,2,2,,,,,23,0,23,0,,,,,,,,,,,,,,,,,,,,,,,,,,,,,,,,,,,,,,908.1235471169998,None,908.1235471169998,None,,,,,,,,,sub-25,30/03/2000,2: Female,01/11/2023,002,1: right,2023_Nov_01_1732,[FINAL]_fmri_multiplication,2021.2.3,59.987189855585534
block7.xlsx,,,,,,,,,,,,,,0,2,2,2,,,,,24,0,24,0,,,,,,,,,,,,,,,,,,,,,,,,,,,,,,,,,,,,,,909.1228192489998,None,909.1228192489998,None,,,,,,,,,sub-25,30/03/2000,2: Female,01/11/2023,002,1: right,2023_Nov_01_1732,[FINAL]_fmri_multiplication,2021.2.3,59.987189855585534
block7.xlsx,,,,,,,,,,,,,,0,2,2,2,,,,,25,0,25,0,,,,,,,,,,,,,,,,,,,,,,,,,,,,,,,,,,,,,,910.1228448289999,None,910.1228448289999,None,,,,,,,,,sub-25,30/03/2000,2: Female,01/11/2023,002,1: right,2023_Nov_01_1732,[FINAL]_fmri_multiplication,2021.2.3,59.987189855585534
block7.xlsx,,,,,,,,,,,,,,0,2,2,2,,,,,26,0,26,0,,,,,,,,,,,,,,,,,,,,,,,,,,,,,,,,,,,,,,911.1234450389998,None,911.1234450389998,None,,,,,,,,,sub-25,30/03/2000,2: Female,01/11/2023,002,1: right,2023_Nov_01_1732,[FINAL]_fmri_multiplication,2021.2.3,59.987189855585534
block7.xlsx,,,,,,,,,,,,,,0,2,2,2,,,,,27,0,27,0,,,,,,,,,,,,,,,,,,,,,,,,,,,,,,,,,,,,,,912.1229516869998,None,912.1229516869998,None,,,,,,,,,sub-25,30/03/2000,2: Female,01/11/2023,002,1: right,2023_Nov_01_1732,[FINAL]_fmri_multiplication,2021.2.3,59.987189855585534
block7.xlsx,,,,,,,,,,,,,,0,2,2,2,,,,,28,0,28,0,,,,,,,,,,,,,,,,,,,,,,,,,,,,,,,,,,,,,,913.1235622419999,None,913.1235622419999,None,,,,,,,,,sub-25,30/03/2000,2: Female,01/11/2023,002,1: right,2023_Nov_01_1732,[FINAL]_fmri_multiplication,2021.2.3,59.987189855585534
block7.xlsx,,,,,,,,,,,,,,0,2,2,2,,,,,29,0,29,0,,,,,,,,,,,,,,,,,,,,,,,,,,,,,,,,,,,,,,914.1225492469998,None,914.1225492469998,None,,,,,,,,,sub-25,30/03/2000,2: Female,01/11/2023,002,1: right,2023_Nov_01_1732,[FINAL]_fmri_multiplication,2021.2.3,59.987189855585534
block7.xlsx,,,,,,,,,,,,,,0,2,2,2,,,,,,,,,,,,,,,,,,,,,,,,,,,,,,,,,,,,,,,,,,,,,,,,,,,,,,,,,,sub-25,30/03/2000,2: Female,01/11/2023,002,1: right,2023_Nov_01_1732,[FINAL]_fmri_multiplication,2021.2.3,59.987189855585534
block8.xlsx,10,7.5,4.2,9 x 9,81,16,9 x 9 = 81,large-sized_low-interference,large-sized,low-interference,6,CorrectRESP,a,0,3,3,3,0,0,0,0,,,,,,,,,,,,,915.1230655009999,None,925.1502177970001,None,925.6205712229998,None,927.6213613949999,None,928.3713942280001,None,928.6213074910002,None,928.6213074910002,None,d,0,0.4780237689997193,928.6213074910002,None,929.1210555580001,None,929.1210555580001,None,d,0.15432003999967492,929.1210555580001,None,929.3044221099999,None,,,,,,,,,,,,,sub-25,30/03/2000,2: Female,01/11/2023,002,1: right,2023_Nov_01_1732,[FINAL]_fmri_multiplication,2021.2.3,59.987189855585534
block8.xlsx,21.7,7.5,5.5,5 x 4,20,8,4 x 5 = 20,small-sized_high-interference,small-sized,high-interference,8,CorrectRESP,a,0,3,3,3,0,1,1,1,,,,,,,,,,,,,,,933.5047275749998,None,934.004205,None,936.0044944699998,None,936.7546263189997,None,937.0049348469997,None,937.0049348469997,None,d,0,0.5343618900001275,937.0049348469997,None,937.5713090469999,None,937.5713090469999,None,d,0.15199523799992676,937.5713090469999,None,937.7548251419998,None,,,,,,,,,,,,,sub-25,30/03/2000,2: Female,01/11/2023,002,1: right,2023_Nov_01_1732,[FINAL]_fmri_multiplication,2021.2.3,59.987189855585534
block8.xlsx,34.7,7.5,13.5,9 x 4,32,20,4 x 9 = 32,large-sized_high-interference,large-sized,high-interference,9,IncorrectRESP,d,0,3,3,3,0,2,2,2,,,,,,,,,,,,,,,943.2541643459999,None,943.7551338560002,None,945.7548807560001,None,946.5047364080001,None,946.7686833180001,None,946.7686833180001,None,a,0,0.4986394749998908,946.7686833180001,None,947.2876820440001,None,947.2876820440001,None,d,0.17970087999992757,947.2876820440001,None,947.4876660340001,None,,,,,,,,,,,,,sub-25,30/03/2000,2: Female,01/11/2023,002,1: right,2023_Nov_01_1732,[FINAL]_fmri_multiplication,2021.2.3,59.987189855585534
block8.xlsx,55.7,7.5,3.1,4 x 6,24,10,6 x 4 = 24,small-sized_high-interference,small-sized,high-interference,12,CorrectRESP,a,0,3,3,3,0,3,3,3,,,,,,,,,,,,,,,960.9881564739999,None,961.4881484759999,None,963.4881096979998,None,964.2382026810001,None,964.4880042350001,None,964.4880042350001,None,d,0,0.48327840700039815,964.4880042350001,None,964.9883115,None,964.9883115,None,d,0.1509154559998933,964.9883115,None,965.1710681,None,,,,,,,,,,,,,sub-25,30/03/2000,2: Female,01/11/2023,002,1: right,2023_Nov_01_1732,[FINAL]_fmri_multiplication,2021.2.3,59.987189855585534
block8.xlsx,66.3,7.5,7.7,2 x 6,10,6,6 x 2 = 10,small-sized_low-interference,small-sized,low-interference,3,IncorrectRESP,d,0,3,3,3,0,4,4,4,,,,,,,,,,,,,,,968.2714172319997,None,968.7714471119998,None,970.7713505460001,None,971.5214225459999,None,971.7720007,None,971.7720007,None,a,0,0.6234008880001056,971.7720007,None,972.4210857379999,None,972.4210857379999,None,d,0.14231407499983106,972.4210857379999,None,972.5880081,None,,,,,,,,,,,,,sub-25,30/03/2000,2: Female,01/11/2023,002,1: right,2023_Nov_01_1732,[FINAL]_fmri_multiplication,2021.2.3,59.987189855585534
block8.xlsx,81.5,7.5,6.9,7 x 7,49,18,7 x 7 = 49,large-sized_low-interference,large-sized,low-interference,7,CorrectRESP,a,0,3,3,3,0,5,5,5,,,,,,,,,,,,,,,980.2875792680002,None,980.7880114559998,None,982.7880642380001,None,983.5381095,None,983.7884203899998,None,983.7884203899998,None,d,0,0.5269591040000705,983.7884203899998,None,984.3377461519999,None,984.3377461519999,None,d,0.15352450000000317,984.3377461519999,None,984.5215062,None,,,,,,,,,,,,,sub-25,30/03/2000,2: Female,01/11/2023,002,1: right,2023_Nov_01_1732,[FINAL]_fmri_multiplication,2021.2.3,59.987189855585534
block8.xlsx,95.9,7.5,12.3,2 x 6,12,6,6 x 2 = 12,small-sized_low-interference,small-sized,low-interference,3,CorrectRESP,a,0,3,3,3,0,6,6,6,,,,,,,,,,,,,,,991.4217263770001,None,991.9207260769999,None,993.9213580179999,None,994.6717685190001,None,994.9356708239998,None,994.9356708239998,None,d,0,0.49169416599988836,994.9356708239998,None,995.4543898450002,None,995.4543898450002,None,d,0.13304900399998587,995.4543898450002,None,995.6044419559998,None,,,,,,,,,,,,,sub-25,30/03/2000,2: Female,01/11/2023,002,1: right,2023_Nov_01_1732,[FINAL]_fmri_multiplication,2021.2.3,59.987189855585534
block8.xlsx,115.7,7.5,2.7,7 x 8,63,22,8 x 7 = 63,large-sized_high-interference,large-sized,high-interference,9,IncorrectRESP,d,0,3,3,3,0,7,7,7,,,,,,,,,,,,,,,1007.9048100129999,None,1008.4046594480001,None,1010.4042597319999,None,1011.1548193979997,None,1011.4048174979998,None,1011.4048174979998,None,a,0,0.5905593880002016,1011.4048174979998,None,1012.0211387240001,None,1012.0211387240001,None,d,0.18225050800037934,1012.0211387240001,None,1012.2212821550002,None,,,,,,,,,,,,,sub-25,30/03/2000,2: Female,01/11/2023,002,1: right,2023_Nov_01_1732,[FINAL]_fmri_multiplication,2021.2.3,59.987189855585534
block8.xlsx,125.9,7.5,7.8,9 x 2,16,2,2 x 9 = 16,small-sized_low-interference,small-sized,low-interference,7,IncorrectRESP,d,0,3,3,3,0,8,8,8,,,,,,,,,,,,,,,1014.9202712030001,None,1015.4216140379999,None,1017.4206295069998,None,1018.1691234989999,None,1018.420424,None,1018.420424,None,a,0,0.5187429280003926,1018.420424,None,1018.969822,None,1018.969822,None,d,0.16151575100002447,1018.969822,None,1019.1544840649999,None,,,,,,,,,,,,,sub-25,30/03/2000,2: Female,01/11/2023,002,1: right,2023_Nov_01_1732,[FINAL]_fmri_multiplication,2021.2.3,59.987189855585534
block8.xlsx,141.2,7.5,2.9,8 x 3,24,12,3 x 8 = 24,small-sized_high-interference,small-sized,high-interference,13,CorrectRESP,a,0,3,3,3,0,9,9,9,,,,,,,,,,,,,,,1026.955005,None,1027.4545460539998,None,1029.4544787260002,None,1030.204787,None,1030.454906,None,1030.454906,None,d,0,0.5163493690001815,1030.454906,None,1031.004197,None,1031.004197,None,d,0.1591068739999173,1031.004197,None,1031.187957,None,,,,,,,,,,,,,sub-25,30/03/2000,2: Female,01/11/2023,002,1: right,2023_Nov_01_1732,[FINAL]_fmri_multiplication,2021.2.3,59.987189855585534
block8.xlsx,151.6,7.5,2,4 x 8,32,24,8 x 4 = 32,large-sized_high-interference,large-sized,high-interference,25,CorrectRESP,a,0,3,3,3,0,10,10,10,,,,,,,,,,,,,,,1034.0880402120001,None,1034.587978,None,1036.588112,None,1037.3382515580001,None,1037.588747,None,1037.588747,None,d,0,0.4306530019998718,1037.588747,None,1038.037799,None,1038.037799,None,d,0.15762208200021632,1038.037799,None,1038.220651,None,,,,,,,,,,,,,sub-25,30/03/2000,2: Female,01/11/2023,002,1: right,2023_Nov_01_1732,[FINAL]_fmri_multiplication,2021.2.3,59.987189855585534
block8.xlsx,161.1,7.5,13.1,9 x 9,72,16,9 x 9 = 72,large-sized_low-interference,large-sized,low-interference,6,IncorrectRESP,d,0,3,3,3,0,11,11,11,,,,,,,,,,,,,,,1040.2214049549998,None,1040.721555,None,1042.7214169549998,None,1043.471259,None,1043.7222009050001,None,1043.7222009050001,None,a,0,0.4571717019998687,1043.7222009050001,None,1044.204005,None,1044.204005,None,d,0.12729386699993483,1044.204005,None,1044.3542254989998,None,,,,,,,,,,,,,sub-25,30/03/2000,2: Female,01/11/2023,002,1: right,2023_Nov_01_1732,[FINAL]_fmri_multiplication,2021.2.3,59.987189855585534
block8.xlsx,181.7,7.5,2.4,5 x 4,16,8,4 x 5 = 16,small-sized_high-interference,small-sized,high-interference,8,IncorrectRESP,d,0,3,3,3,0,12,12,12,,,,,,,,,,,,,,,1057.455105,None,1057.9552814509998,None,1059.954613,None,1060.705153,None,1060.9552309249998,None,1060.9552309249998,None,a,0,0.5520353030001388,1060.9552309249998,None,1061.5385662009999,None,1061.5385662009999,None,d,0.16077568600030645,1061.5385662009999,None,1061.721275,None,,,,,,,,,,,,,sub-25,30/03/2000,2: Female,01/11/2023,002,1: right,2023_Nov_01_1732,[FINAL]_fmri_multiplication,2021.2.3,59.987189855585534
block8.xlsx,191.6,7.5,5.7,7 x 7,56,18,7 x 7 = 56,large-sized_low-interference,large-sized,low-interference,7,IncorrectRESP,d,0,3,3,3,0,13,13,13,,,,,,,,,,,,,,,1064.121762,None,1064.621324,None,1066.62143,None,1067.3715427450002,None,1067.6211184019999,None,1067.6211184019999,None,a,0,0.47817234399963127,1067.6211184019999,None,1068.1204425659998,None,1068.1204425659998,None,d,0.12291018699988854,1068.1204425659998,None,1068.27031,None,,,,,,,,,,,,,sub-25,30/03/2000,2: Female,01/11/2023,002,1: right,2023_Nov_01_1732,[FINAL]_fmri_multiplication,2021.2.3,59.987189855585534
block8.xlsx,204.8,7.5,2.2,9 x 2,18,2,2 x 9 = 18,small-sized_low-interference,small-sized,low-interference,7,CorrectRESP,a,0,3,3,3,0,14,14,14,,,,,,,,,,,,,,,1073.971256,None,1074.4713912799998,None,1076.4713540859998,None,1077.221427,None,1077.4715514660002,None,1077.4715514660002,None,d,0,0.5318526800001564,1077.4715514660002,None,1078.0211134259998,None,1078.0211134259998,None,d,0.17432303300029162,1078.0211134259998,None,1078.2211863490002,None,,,,,,,,,,,,,sub-25,30/03/2000,2: Female,01/11/2023,002,1: right,2023_Nov_01_1732,[FINAL]_fmri_multiplication,2021.2.3,59.987189855585534
block8.xlsx,214.5,7.5,5.2,8 x 3,21,12,3 x 8 = 21,small-sized_high-interference,small-sized,high-interference,13,IncorrectRESP,d,0,3,3,3,0,15,15,15,,,,,,,,,,,,,,,1080.42142,None,1080.921375,None,1082.9213489109998,None,1083.6714373089999,None,1083.9216669409998,None,1083.9216669409998,None,a,0,0.49775657500003945,1083.9216669409998,None,1084.4381021250001,None,1084.4381021250001,None,d,0.15722243600021102,1084.4381021250001,None,1084.620668,None,,,,,,,,,,,,,sub-25,30/03/2000,2: Female,01/11/2023,002,1: right,2023_Nov_01_1732,[FINAL]_fmri_multiplication,2021.2.3,59.987189855585534
block8.xlsx,227.2,7.5,3.8,4 x 4,20,4,4 x 4 = 20,small-sized_low-interference,small-sized,low-interference,5,IncorrectRESP,d,0,3,3,3,0,16,16,16,,,,,,,,,,,,,,,1089.821307,None,1090.3231407479998,None,1092.329656,None,1093.0694623109998,None,1093.3244934939999,None,1093.3244934939999,None,a,0,0.5827910849998261,1093.3244934939999,None,1093.9385821800001,None,1093.9385821800001,None,d,0.16079273600007582,1093.9385821800001,None,1094.1214551580001,None,,,,,,,,,,,,,sub-25,30/03/2000,2: Female,01/11/2023,002,1: right,2023_Nov_01_1732,[FINAL]_fmri_multiplication,2021.2.3,59.987189855585534
block8.xlsx,238.5,7.5,2,4 x 6,28,10,6 x 4 = 28,small-sized_high-interference,small-sized,high-interference,12,IncorrectRESP,d,0,3,3,3,0,17,17,17,,,,,,,,,,,,,,,1097.9217565499998,None,1098.4221881969997,None,1100.421636,None,1101.171625,None,1101.4213680459998,None,1101.4213680459998,None,a,0,0.5339148299999579,1101.4213680459998,None,1101.987977,None,1101.987977,None,d,0.1754331900001489,1101.987977,None,1102.188065,None,,,,,,,,,,,,,sub-25,30/03/2000,2: Female,01/11/2023,002,1: right,2023_Nov_01_1732,[FINAL]_fmri_multiplication,2021.2.3,59.987189855585534
block8.xlsx,248,7.5,4,6 x 5,30,14,5 x 6 = 30,large-sized_low-interference,large-sized,low-interference,6,CorrectRESP,a,0,3,3,3,0,18,18,18,,,,,,,,,,,,,,,1104.188085,None,1104.6880376139998,None,1106.687699,None,1107.4381915509998,None,1107.6881866039998,None,1107.6881866039998,None,d,0,0.3790571839999757,1107.6881866039998,None,1108.0876678690001,None,1108.0876678690001,None,d,0.155771592,1108.0876678690001,None,1108.2713199659997,None,,,,,,,,,,,,,sub-25,30/03/2000,2: Female,01/11/2023,002,1: right,2023_Nov_01_1732,[FINAL]_fmri_multiplication,2021.2.3,59.987189855585534
block8.xlsx,259.5,7.5,11.3,7 x 8,56,22,8 x 7 = 56,large-sized_high-interference,large-sized,high-interference,9,CorrectRESP,a,0,3,3,3,0,19,19,19,,,,,,,,,,,,,,,1112.2714276860002,None,1112.771972,None,1114.771159,None,1115.521442,None,1115.771846,None,1115.771846,None,d,0,0.48750468799971713,1115.771846,None,1116.288108,None,1116.288108,None,d,0.1393070910003189,1116.288108,None,1116.4547466899999,None,,,,,,,,,,,,,sub-25,30/03/2000,2: Female,01/11/2023,002,1: right,2023_Nov_01_1732,[FINAL]_fmri_multiplication,2021.2.3,59.987189855585534
block8.xlsx,278.3,7.5,10.9,6 x 5,36,14,5 x 6 = 36,large-sized_low-interference,large-sized,low-interference,6,IncorrectRESP,d,0,3,3,3,0,20,20,20,,,,,,,,,,,,,,,1127.752757,None,1128.2483736979998,None,1130.2551759389999,None,1131.0045686489998,None,1131.2553434870001,None,1131.2553434870001,None,a,0,0.5640399039998556,1131.2553434870001,None,1131.838099,None,1131.838099,None,d,0.17333768700018481,1131.838099,None,1132.037724,None,,,,,,,,,,,,,sub-25,30/03/2000,2: Female,01/11/2023,002,1: right,2023_Nov_01_1732,[FINAL]_fmri_multiplication,2021.2.3,59.987189855585534
block8.xlsx,296.7,7.5,3.5,9 x 4,36,20,4 x 9 = 36,large-sized_high-interference,large-sized,high-interference,9,CorrectRESP,a,0,3,3,3,0,21,21,21,,,,,,,,,,,,,,,1142.9374724479999,None,1143.438177,None,1145.4377991669999,None,1146.1879881599998,None,1146.4387341329998,None,1146.4387341329998,None,d,0,0.5246327009999732,1146.4387341329998,None,1146.987509,None,1146.987509,None,d,0.15978605300006166,1146.987509,None,1147.1707915749998,None,,,,,,,,,,,,,sub-25,30/03/2000,2: Female,01/11/2023,002,1: right,2023_Nov_01_1732,[FINAL]_fmri_multiplication,2021.2.3,59.987189855585534
block8.xlsx,307.7,7.5,2.9,4 x 4,16,4,4 x 4 = 16,small-sized_low-interference,small-sized,low-interference,5,CorrectRESP,a,0,3,3,3,0,22,22,22,,,,,,,,,,,,,,,1150.670875,None,1151.1715646849998,None,1153.1708759570001,None,1153.921351,None,1154.1715255129998,None,1154.1715255129998,None,d,0,0.4958185750001576,1154.1715255129998,None,1154.687524,None,1154.687524,None,d,0.17979815799981225,1154.687524,None,1154.887512,None,,,,,,,,,,,,,sub-25,30/03/2000,2: Female,01/11/2023,002,1: right,2023_Nov_01_1732,[FINAL]_fmri_multiplication,2021.2.3,59.987189855585534
block8.xlsx,318.1,7.5,9.4,4 x 8,28,24,8 x 4 = 28,large-sized_high-interference,large-sized,high-interference,25,IncorrectRESP,d,0,3,3,3,0,23,23,23,,,,,,,,,,,,,,,1157.788074,None,1158.2892416179998,None,1160.3048732019997,None,1161.0549315160001,None,1161.306196,None,1161.306196,None,a,0,0.4891755359999479,1161.306196,None,1161.8214949019998,None,1161.8214949019998,None,d,0.16588878599986856,1161.8214949019998,None,1162.0046160860002,None,,,,,,,,,,,,,sub-25,30/03/2000,2: Female,01/11/2023,002,1: right,2023_Nov_01_1732,[FINAL]_fmri_multiplication,2021.2.3,59.987189855585534
block8.xlsx,,,,,,,,,,,,,,0,3,3,3,,,,,0,0,0,0,,,,,,,,,,,,,,,,,,,,,,,,,,,,,,,,,,,,,,1171.404706,None,1171.404706,None,,,,,,,,,sub-25,30/03/2000,2: Female,01/11/2023,002,1: right,2023_Nov_01_1732,[FINAL]_fmri_multiplication,2021.2.3,59.987189855585534
block8.xlsx,,,,,,,,,,,,,,0,3,3,3,,,,,1,0,1,0,,,,,,,,,,,,,,,,,,,,,,,,,,,,,,,,,,,,,,1172.404414,1172.404414,1172.404414,1172.404414,,,,,,,,,sub-25,30/03/2000,2: Female,01/11/2023,002,1: right,2023_Nov_01_1732,[FINAL]_fmri_multiplication,2021.2.3,59.987189855585534
block8.xlsx,,,,,,,,,,,,,,0,3,3,3,,,,,2,0,2,0,,,,,,,,,,,,,,,,,,,,,,,,,,,,,,,,,,,,,,1173.4047400260001,1173.4047400260001,1173.4047400260001,1173.4047400260001,,,,,,,,,sub-25,30/03/2000,2: Female,01/11/2023,002,1: right,2023_Nov_01_1732,[FINAL]_fmri_multiplication,2021.2.3,59.987189855585534
block8.xlsx,,,,,,,,,,,,,,0,3,3,3,,,,,3,0,3,0,,,,,,,,,,,,,,,,,,,,,,,,,,,,,,,,,,,,,,1174.4046842039998,1174.4046842039998,1174.4046842039998,1174.4046842039998,,,,,,,,,sub-25,30/03/2000,2: Female,01/11/2023,002,1: right,2023_Nov_01_1732,[FINAL]_fmri_multiplication,2021.2.3,59.987189855585534
block8.xlsx,,,,,,,,,,,,,,0,3,3,3,,,,,4,0,4,0,,,,,,,,,,,,,,,,,,,,,,,,,,,,,,,,,,,,,,1175.4048721149998,1175.4048721149998,1175.4048721149998,1175.4048721149998,,,,,,,,,sub-25,30/03/2000,2: Female,01/11/2023,002,1: right,2023_Nov_01_1732,[FINAL]_fmri_multiplication,2021.2.3,59.987189855585534
block8.xlsx,,,,,,,,,,,,,,0,3,3,3,,,,,5,0,5,0,,,,,,,,,,,,,,,,,,,,,,,,,,,,,,,,,,,,,,1176.4052237299998,1176.4052237299998,1176.4052237299998,1176.4052237299998,,,,,,,,,sub-25,30/03/2000,2: Female,01/11/2023,002,1: right,2023_Nov_01_1732,[FINAL]_fmri_multiplication,2021.2.3,59.987189855585534
block8.xlsx,,,,,,,,,,,,,,0,3,3,3,,,,,6,0,6,0,,,,,,,,,,,,,,,,,,,,,,,,,,,,,,,,,,,,,,1177.405189,1177.405189,1177.405189,1177.405189,,,,,,,,,sub-25,30/03/2000,2: Female,01/11/2023,002,1: right,2023_Nov_01_1732,[FINAL]_fmri_multiplication,2021.2.3,59.987189855585534
block8.xlsx,,,,,,,,,,,,,,0,3,3,3,,,,,7,0,7,0,,,,,,,,,,,,,,,,,,,,,,,,,,,,,,,,,,,,,,1178.4053514510001,1178.4053514510001,1178.4053514510001,1178.4053514510001,,,,,,,,,sub-25,30/03/2000,2: Female,01/11/2023,002,1: right,2023_Nov_01_1732,[FINAL]_fmri_multiplication,2021.2.3,59.987189855585534
block8.xlsx,,,,,,,,,,,,,,0,3,3,3,,,,,8,0,8,0,,,,,,,,,,,,,,,,,,,,,,,,,,,,,,,,,,,,,,1179.405716,1179.405716,1179.405716,1179.405716,,,,,,,,,sub-25,30/03/2000,2: Female,01/11/2023,002,1: right,2023_Nov_01_1732,[FINAL]_fmri_multiplication,2021.2.3,59.987189855585534
block8.xlsx,,,,,,,,,,,,,,0,3,3,3,,,,,9,0,9,0,,,,,,,,,,,,,,,,,,,,,,,,,,,,,,,,,,,,,,1180.4220373560001,None,1180.4220373560001,None,,,,,,,,,sub-25,30/03/2000,2: Female,01/11/2023,002,1: right,2023_Nov_01_1732,[FINAL]_fmri_multiplication,2021.2.3,59.987189855585534
block8.xlsx,,,,,,,,,,,,,,0,3,3,3,,,,,10,0,10,0,,,,,,,,,,,,,,,,,,,,,,,,,,,,,,,,,,,,,,1181.4220523059998,None,1181.4220523059998,None,,,,,,,,,sub-25,30/03/2000,2: Female,01/11/2023,002,1: right,2023_Nov_01_1732,[FINAL]_fmri_multiplication,2021.2.3,59.987189855585534
block8.xlsx,,,,,,,,,,,,,,0,3,3,3,,,,,11,0,11,0,,,,,,,,,,,,,,,,,,,,,,,,,,,,,,,,,,,,,,1182.422069,None,1182.422069,None,,,,,,,,,sub-25,30/03/2000,2: Female,01/11/2023,002,1: right,2023_Nov_01_1732,[FINAL]_fmri_multiplication,2021.2.3,59.987189855585534
block8.xlsx,,,,,,,,,,,,,,0,3,3,3,,,,,12,0,12,0,,,,,,,,,,,,,,,,,,,,,,,,,,,,,,,,,,,,,,1183.4221654520002,None,1183.4221654520002,None,,,,,,,,,sub-25,30/03/2000,2: Female,01/11/2023,002,1: right,2023_Nov_01_1732,[FINAL]_fmri_multiplication,2021.2.3,59.987189855585534
block8.xlsx,,,,,,,,,,,,,,0,3,3,3,,,,,13,0,13,0,,,,,,,,,,,,,,,,,,,,,,,,,,,,,,,,,,,,,,1184.421741,None,1184.421741,None,,,,,,,,,sub-25,30/03/2000,2: Female,01/11/2023,002,1: right,2023_Nov_01_1732,[FINAL]_fmri_multiplication,2021.2.3,59.987189855585534
block8.xlsx,,,,,,,,,,,,,,0,3,3,3,,,,,14,0,14,0,,,,,,,,,,,,,,,,,,,,,,,,,,,,,,,,,,,,,,1185.421171,None,1185.421171,None,,,,,,,,,sub-25,30/03/2000,2: Female,01/11/2023,002,1: right,2023_Nov_01_1732,[FINAL]_fmri_multiplication,2021.2.3,59.987189855585534
block8.xlsx,,,,,,,,,,,,,,0,3,3,3,,,,,15,0,15,0,,,,,,,,,,,,,,,,,,,,,,,,,,,,,,,,,,,,,,1186.4220109809999,None,1186.4220109809999,None,,,,,,,,,sub-25,30/03/2000,2: Female,01/11/2023,002,1: right,2023_Nov_01_1732,[FINAL]_fmri_multiplication,2021.2.3,59.987189855585534
block8.xlsx,,,,,,,,,,,,,,0,3,3,3,,,,,16,0,16,0,,,,,,,,,,,,,,,,,,,,,,,,,,,,,,,,,,,,,,1187.421144,None,1187.421144,None,,,,,,,,,sub-25,30/03/2000,2: Female,01/11/2023,002,1: right,2023_Nov_01_1732,[FINAL]_fmri_multiplication,2021.2.3,59.987189855585534
block8.xlsx,,,,,,,,,,,,,,0,3,3,3,,,,,17,0,17,0,,,,,,,,,,,,,,,,,,,,,,,,,,,,,,,,,,,,,,1188.421912,None,1188.421912,None,,,,,,,,,sub-25,30/03/2000,2: Female,01/11/2023,002,1: right,2023_Nov_01_1732,[FINAL]_fmri_multiplication,2021.2.3,59.987189855585534
block8.xlsx,,,,,,,,,,,,,,0,3,3,3,,,,,18,0,18,0,,,,,,,,,,,,,,,,,,,,,,,,,,,,,,,,,,,,,,1189.4223069189998,None,1189.4223069189998,None,,,,,,,,,sub-25,30/03/2000,2: Female,01/11/2023,002,1: right,2023_Nov_01_1732,[FINAL]_fmri_multiplication,2021.2.3,59.987189855585534
block8.xlsx,,,,,,,,,,,,,,0,3,3,3,,,,,19,0,19,0,,,,,,,,,,,,,,,,,,,,,,,,,,,,,,,,,,,,,,1190.435444,None,1190.435444,None,,,,,,,,,sub-25,30/03/2000,2: Female,01/11/2023,002,1: right,2023_Nov_01_1732,[FINAL]_fmri_multiplication,2021.2.3,59.987189855585534
block8.xlsx,,,,,,,,,,,,,,0,3,3,3,,,,,20,0,20,0,,,,,,,,,,,,,,,,,,,,,,,,,,,,,,,,,,,,,,1191.4223288909998,None,1191.4223288909998,None,,,,,,,,,sub-25,30/03/2000,2: Female,01/11/2023,002,1: right,2023_Nov_01_1732,[FINAL]_fmri_multiplication,2021.2.3,59.987189855585534
block8.xlsx,,,,,,,,,,,,,,0,3,3,3,,,,,21,0,21,0,,,,,,,,,,,,,,,,,,,,,,,,,,,,,,,,,,,,,,1192.4222404729999,None,1192.4222404729999,None,,,,,,,,,sub-25,30/03/2000,2: Female,01/11/2023,002,1: right,2023_Nov_01_1732,[FINAL]_fmri_multiplication,2021.2.3,59.987189855585534
block8.xlsx,,,,,,,,,,,,,,0,3,3,3,,,,,22,0,22,0,,,,,,,,,,,,,,,,,,,,,,,,,,,,,,,,,,,,,,1193.424101,None,1193.424101,None,,,,,,,,,sub-25,30/03/2000,2: Female,01/11/2023,002,1: right,2023_Nov_01_1732,[FINAL]_fmri_multiplication,2021.2.3,59.987189855585534
block8.xlsx,,,,,,,,,,,,,,0,3,3,3,,,,,23,0,23,0,,,,,,,,,,,,,,,,,,,,,,,,,,,,,,,,,,,,,,1194.422625,None,1194.422625,None,,,,,,,,,sub-25,30/03/2000,2: Female,01/11/2023,002,1: right,2023_Nov_01_1732,[FINAL]_fmri_multiplication,2021.2.3,59.987189855585534
block8.xlsx,,,,,,,,,,,,,,0,3,3,3,,,,,24,0,24,0,,,,,,,,,,,,,,,,,,,,,,,,,,,,,,,,,,,,,,1195.422773,None,1195.422773,None,,,,,,,,,sub-25,30/03/2000,2: Female,01/11/2023,002,1: right,2023_Nov_01_1732,[FINAL]_fmri_multiplication,2021.2.3,59.987189855585534
block8.xlsx,,,,,,,,,,,,,,0,3,3,3,,,,,25,0,25,0,,,,,,,,,,,,,,,,,,,,,,,,,,,,,,,,,,,,,,1196.4236223029998,None,1196.4236223029998,None,,,,,,,,,sub-25,30/03/2000,2: Female,01/11/2023,002,1: right,2023_Nov_01_1732,[FINAL]_fmri_multiplication,2021.2.3,59.987189855585534
block8.xlsx,,,,,,,,,,,,,,0,3,3,3,,,,,26,0,26,0,,,,,,,,,,,,,,,,,,,,,,,,,,,,,,,,,,,,,,1197.422097,None,1197.422097,None,,,,,,,,,sub-25,30/03/2000,2: Female,01/11/2023,002,1: right,2023_Nov_01_1732,[FINAL]_fmri_multiplication,2021.2.3,59.987189855585534
block8.xlsx,,,,,,,,,,,,,,0,3,3,3,,,,,27,0,27,0,,,,,,,,,,,,,,,,,,,,,,,,,,,,,,,,,,,,,,1198.4218746369997,None,1198.4218746369997,None,,,,,,,,,sub-25,30/03/2000,2: Female,01/11/2023,002,1: right,2023_Nov_01_1732,[FINAL]_fmri_multiplication,2021.2.3,59.987189855585534
block8.xlsx,,,,,,,,,,,,,,0,3,3,3,,,,,28,0,28,0,,,,,,,,,,,,,,,,,,,,,,,,,,,,,,,,,,,,,,1199.422049,None,1199.422049,None,,,,,,,,,sub-25,30/03/2000,2: Female,01/11/2023,002,1: right,2023_Nov_01_1732,[FINAL]_fmri_multiplication,2021.2.3,59.987189855585534
block8.xlsx,,,,,,,,,,,,,,0,3,3,3,,,,,29,0,29,0,,,,,,,,,,,,,,,,,,,,,,,,,,,,,,,,,,,,,,1200.4233547479998,None,1200.4233547479998,None,,,,,,,,,sub-25,30/03/2000,2: Female,01/11/2023,002,1: right,2023_Nov_01_1732,[FINAL]_fmri_multiplication,2021.2.3,59.987189855585534
block8.xlsx,,,,,,,,,,,,,,0,3,3,3,,,,,,,,,,,,,,,,,,,,,,,,,,,,,,,,,,,,,,,,,,,,,,,,,,,,,,,,,,sub-25,30/03/2000,2: Female,01/11/2023,002,1: right,2023_Nov_01_1732,[FINAL]_fmri_multiplication,2021.2.3,59.987189855585534
,,,,,,,,,,,,,,,,,,,,,,,,,,,,,,,,,,,,,,,,,,,,,,,,,,,,,,,,,,,,,,,,,,,1201.4213544200002,1203.421573,1203.405141,None,y,447.92535210200003,1203.405141,None,sub-25,30/03/2000,2: Female,01/11/2023,002,1: right,2023_Nov_01_1732,[FINAL]_fmri_multiplication,2021.2.3,59.987189855585534