blocks_file,start,dur,rest,mult_problemB,mult_options,stim_trial,mult_stim,type,ProblemSize,InterferenceLH,InterferenceLevel,mult_type,corrRESP,blocks_set.thisRepN,blocks_set.thisTrialN,blocks_set.thisN,blocks_set.thisIndex,TRIALS.thisRepN,TRIALS.thisTrialN,TRIALS.thisN,TRIALS.thisIndex,timer_loop.thisRepN,timer_loop.thisTrialN,timer_loop.thisN,timer_loop.thisIndex,WAIT_TEXT.started,WAIT_TEXT.stopped,scan_start_trigger.keys,scan_start_trigger.rt,scan_start_trigger.started,scan_start_trigger.stopped,MAIN_SCREEN.started,MAIN_SCREEN.stopped,Block_Text.started,Block_Text.stopped,asterisk500ms.started,asterisk500ms.stopped,mult_question_text.started,mult_question_text.stopped,equal_text.started,equal_text.stopped,blank250_text.started,blank250_text.stopped,Mult_OPTION.started,Mult_OPTION.stopped,Mult_YN.started,Mult_YN.stopped,Mult_Resp.keys,Mult_Resp.corr,Mult_Resp.rt,Mult_Resp.started,Mult_Resp.stopped,Strategy_Q.started,Strategy_Q.stopped,Strategy_Option.started,Strategy_Option.stopped,Strategy_RESP.keys,Strategy_RESP.rt,Strategy_RESP.started,Strategy_RESP.stopped,jitters.started,jitters.stopped,resting_text.started,resting_text.stopped,countdown_timer.started,countdown_timer.stopped,End_Text.started,End_Text.stopped,fixation.started,fixation.stopped,fixation_end.keys,fixation_end.rt,fixation_end.started,fixation_end.stopped,participant,Date of birth (DD/MM/YEAR),gender,Testing Date (DD/MM/YEAR),session,handedness,date,expName,psychopyVersion,frameRate
,,,,,,,,,,,,,,,,,,,,,,,,,,32.16506331299934,None,s,19.384636319999117,32.16506331299934,None,,,,,,,,,,,,,,,,,,,,,,,,,,,,,,,,,,,,,,,,,,,,sub-10,08/08/2001,1: Male,21/10/2023,002,1: right,2023_Oct_21_1020,[FINAL]_fmri_multiplication,2021.2.3,59.97611583
block5.xlsx,10,7.5,4.6,3 x 6,18,7,6 x 3 = 18,small-sized_high-interference,small-sized,high-interference,8,CorrectRESP,a,0,0,0,0,0,0,0,0,,,,,,,,,,,51.57045645299877,None,56.59116098699997,None,66.59750231999897,None,67.07511064,None,69.07132571099828,None,69.82168740799898,None,70.07389431799857,None,70.07389431799857,None,d,0,0.4813930399996025,70.07389431799857,None,70.58778391799933,None,70.58778391799933,None,d,0.19965257100011513,70.58778391799933,None,70.80451672099844,None,,,,,,,,,,,,,sub-10,08/08/2001,1: Male,21/10/2023,002,1: right,2023_Oct_21_1020,[FINAL]_fmri_multiplication,2021.2.3,59.97611583
block5.xlsx,22.1,7.5,7,9 x 9,72,16,9 x 9 = 72,large-sized_low-interference,large-sized,low-interference,6,IncorrectRESP,d,0,0,0,0,0,1,1,1,,,,,,,,,,,,,,,75.40471428,None,75.90586020299997,None,77.92138994099878,None,78.67130312,None,78.93517574699945,None,78.93517574699945,None,a,0,0.49217015000067477,78.93517574699945,None,79.45450650299972,None,79.45450650299972,None,d,0.27679414600061136,79.45450650299972,None,79.75441923999824,None,,,,,,,,,,,,,sub-10,08/08/2001,1: Male,21/10/2023,002,1: right,2023_Oct_21_1020,[FINAL]_fmri_multiplication,2021.2.3,59.97611583
block5.xlsx,36.6,7.5,4.4,2 x 6,12,6,6 x 2 = 12,small-sized_low-interference,small-sized,low-interference,3,CorrectRESP,a,0,0,0,0,0,2,2,2,,,,,,,,,,,,,,,86.75468749399988,None,87.25441332899936,None,89.25461907399949,None,90.00460151899824,None,90.25440232899928,None,90.25440232899928,None,d,0,0.45286993800073105,90.25440232899928,None,90.73691358099859,None,90.73691358099859,None,d,0.16241342699868255,90.73691358099859,None,90.92084647,None,,,,,,,,,,,,,sub-10,08/08/2001,1: Male,21/10/2023,002,1: right,2023_Oct_21_1020,[FINAL]_fmri_multiplication,2021.2.3,59.97611583
block5.xlsx,48.5,7.5,9.6,8 x 3,24,12,3 x 8 = 24,small-sized_high-interference,small-sized,high-interference,13,CorrectRESP,a,0,0,0,0,0,3,3,3,,,,,,,,,,,,,,,95.32090280899865,None,95.82083075,None,97.82136156099841,None,98.57116286799828,None,98.82130082299955,None,98.82130082299955,None,d,0,0.5260071649991005,98.82130082299955,None,99.37101387799885,None,99.37101387799885,None,d,0.16827886999999464,99.37101387799885,None,99.57128823499988,None,,,,,,,,,,,,,sub-10,08/08/2001,1: Male,21/10/2023,002,1: right,2023_Oct_21_1020,[FINAL]_fmri_multiplication,2021.2.3,59.97611583
block5.xlsx,65.6,7.5,5.4,5 x 5,30,3,5 x 5 = 30,small-sized_low-interference,small-sized,low-interference,3,IncorrectRESP,d,0,0,0,0,0,4,4,4,,,,,,,,,,,,,,,109.17120173999865,None,109.67277943399858,None,111.68831893699826,None,112.4380369999999,None,112.68800506199841,None,112.68800506199841,None,a,0,0.6512756279989844,112.68800506199841,None,113.3712678489992,None,113.3712678489992,None,d,0.32804549699903873,113.3712678489992,None,113.72077157199965,None,,,,,,,,,,,,,sub-10,08/08/2001,1: Male,21/10/2023,002,1: right,2023_Oct_21_1020,[FINAL]_fmri_multiplication,2021.2.3,59.97611583
block5.xlsx,78.5,7.5,7.7,3 x 9,27,19,9 x 3 = 27,large-sized_high-interference,large-sized,high-interference,9,CorrectRESP,a,0,0,0,0,0,5,5,5,,,,,,,,,,,,,,,119.12137523299862,None,119.62075927099977,None,121.62138455599961,None,122.37119709499893,None,122.62107897499845,None,122.62107897499845,None,d,0,0.41421802699915133,122.62107897499845,None,123.05411843099864,None,123.05411843099864,None,d,0.17327207199923578,123.05411843099864,None,123.25465134299884,None,,,,,,,,,,,,,sub-10,08/08/2001,1: Male,21/10/2023,002,1: right,2023_Oct_21_1020,[FINAL]_fmri_multiplication,2021.2.3,59.97611583
block5.xlsx,93.7,7.5,3.5,2 x 8,18,5,8 x 2 = 18,small-sized_low-interference,small-sized,low-interference,7,IncorrectRESP,d,0,0,0,0,0,6,6,6,,,,,,,,,,,,,,,130.95473286499873,None,131.4541458019994,None,133.45459197699893,None,134.20471744499991,None,134.4542746399984,None,134.4542746399984,None,a,0,0.6369926970000961,134.4542746399984,None,135.12115196999912,None,135.12115196999912,None,d,0.21814783999980136,135.12115196999912,None,135.37124032999964,None,,,,,,,,,,,,,sub-10,08/08/2001,1: Male,21/10/2023,002,1: right,2023_Oct_21_1020,[FINAL]_fmri_multiplication,2021.2.3,59.97611583
block5.xlsx,104.7,7.5,6.4,7 x 7,49,18,7 x 7 = 49,large-sized_low-interference,large-sized,low-interference,7,CorrectRESP,a,0,0,0,0,0,7,7,7,,,,,,,,,,,,,,,138.8689587789995,None,139.37197526699856,None,141.37157048099834,None,142.1215730169988,None,142.37168151399965,None,142.37168151399965,None,d,0,0.41572011100106465,142.37168151399965,None,142.80484205899847,None,142.80484205899847,None,d,0.1665708619984798,142.80484205899847,None,142.98783278099836,None,,,,,,,,,,,,,sub-10,08/08/2001,1: Male,21/10/2023,002,1: right,2023_Oct_21_1020,[FINAL]_fmri_multiplication,2021.2.3,59.97611583
block5.xlsx,118.6,7.5,3.2,8 x 5,45,21,5 x 8 = 45,large-sized_high-interference,large-sized,high-interference,9,IncorrectRESP,d,0,0,0,0,0,8,8,8,,,,,,,,,,,,,,,149.3878057949987,None,149.8879920249983,None,151.88798250799846,None,152.63816100799886,None,152.88666490799915,None,152.88666490799915,None,a,0,0.5166965119988163,152.88666490799915,None,153.4208692029988,None,153.4208692029988,None,d,0.26243452500057174,153.4208692029988,None,153.70413526799894,None,,,,,,,,,,,,,sub-10,08/08/2001,1: Male,21/10/2023,002,1: right,2023_Oct_21_1020,[FINAL]_fmri_multiplication,2021.2.3,59.97611583
block5.xlsx,129.3,7.5,6.8,5 x 4,20,8,4 x 5 = 20,small-sized_high-interference,small-sized,high-interference,8,CorrectRESP,a,0,0,0,0,0,9,9,9,,,,,,,,,,,,,,,156.90487558699897,None,157.4042982029987,None,159.40445162999822,None,160.1547673649984,None,160.4044102029984,None,160.4044102029984,None,d,0,0.3908910219997779,160.4044102029984,None,160.8206479929995,None,160.8206479929995,None,d,0.5427653799997643,160.8206479929995,None,161.38752903299974,None,,,,,,,,,,,,,sub-10,08/08/2001,1: Male,21/10/2023,002,1: right,2023_Oct_21_1020,[FINAL]_fmri_multiplication,2021.2.3,59.97611583
block5.xlsx,143.6,7.5,5.5,6 x 5,30,14,5 x 6 = 30,large-sized_low-interference,large-sized,low-interference,6,CorrectRESP,a,0,0,0,0,0,10,10,10,,,,,,,,,,,,,,,168.18800776599892,None,168.68815065599847,None,170.68769477599926,None,171.43809904799855,None,171.68811342799927,None,171.68811342799927,None,d,0,1.1072749800005113,171.68811342799927,None,172.82098818599843,None,172.82098818599843,None,d,0.21439083500081324,172.82098818599843,None,173.0548469159985,None,,,,,,,,,,,,,sub-10,08/08/2001,1: Male,21/10/2023,002,1: right,2023_Oct_21_1020,[FINAL]_fmri_multiplication,2021.2.3,59.97611583
block5.xlsx,156.6,7.5,6,3 x 7,24,11,7 x 3 = 24,small-sized_high-interference,small-sized,high-interference,13,IncorrectRESP,d,0,0,0,0,0,11,11,11,,,,,,,,,,,,,,,178.55510574299842,None,179.05498480299866,None,181.05494040699887,None,181.80468397999903,None,182.07075889999942,None,182.07075889999942,None,a,0,0.5965935259991966,182.07075889999942,None,182.6875791,None,182.6875791,None,d,0.33982160499908787,182.6875791,None,183.0547645429997,None,,,,,,,,,,,,,sub-10,08/08/2001,1: Male,21/10/2023,002,1: right,2023_Oct_21_1020,[FINAL]_fmri_multiplication,2021.2.3,59.97611583
block5.xlsx,170.1,7.5,7.1,5 x 7,40,17,7 x 5 = 40,large-sized_low-interference,large-sized,low-interference,7,IncorrectRESP,d,0,0,0,0,0,12,12,12,,,,,,,,,,,,,,,189.05449912199947,None,189.55459520699878,None,191.5546178,None,192.30461342099989,None,192.55481808399963,None,192.55481808399963,None,a,0,0.5524470370000927,192.55481808399963,None,193.13791300399862,None,193.13791300399862,None,d,0.3214830470005836,193.13791300399862,None,193.48794565199933,None,,,,,,,,,,,,,sub-10,08/08/2001,1: Male,21/10/2023,002,1: right,2023_Oct_21_1020,[FINAL]_fmri_multiplication,2021.2.3,59.97611583
block5.xlsx,184.7,7.5,5.3,4 x 6,28,10,6 x 4 = 28,small-sized_high-interference,small-sized,high-interference,12,IncorrectRESP,d,0,0,0,0,0,13,13,13,,,,,,,,,,,,,,,200.5879634089997,None,201.08803019899824,None,203.08755803499844,None,203.83775760199933,None,204.0879753809986,None,204.0879753809986,None,a,0,0.5473752139987482,204.0879753809986,None,204.65430851099882,None,204.65430851099882,None,d,0.29298543900040386,204.65430851099882,None,204.97096955099914,None,,,,,,,,,,,,,sub-10,08/08/2001,1: Male,21/10/2023,002,1: right,2023_Oct_21_1020,[FINAL]_fmri_multiplication,2021.2.3,59.97611583
block5.xlsx,197.5,7.5,4.2,2 x 7,14,1,7 x 2 = 14,small-sized_low-interference,small-sized,low-interference,4,CorrectRESP,a,0,0,0,0,0,14,14,14,,,,,,,,,,,,,,,210.2686763089987,None,210.76337273299941,None,212.7715666899985,None,213.52165703199898,None,213.7714993719983,None,213.7714993719983,None,d,0,0.6798608849985612,213.7714993719983,None,214.47122684199894,None,214.47122684199894,None,d,0.20409390999884636,214.47122684199894,None,214.7050133019984,None,,,,,,,,,,,,,sub-10,08/08/2001,1: Male,21/10/2023,002,1: right,2023_Oct_21_1020,[FINAL]_fmri_multiplication,2021.2.3,59.97611583
block5.xlsx,209.2,7.5,7.2,9 x 4,36,20,4 x 9 = 36,large-sized_high-interference,large-sized,high-interference,9,CorrectRESP,a,0,0,0,0,0,15,15,15,,,,,,,,,,,,,,,218.90470644799825,None,219.40335463799966,None,221.40471653799978,None,222.1550890089984,None,222.40481843399903,None,222.40481843399903,None,d,0,0.4306090909994964,222.40481843399903,None,222.85433592899972,None,222.85433592899972,None,d,0.17298862999996345,222.85433592899972,None,223.05460655599927,None,,,,,,,,,,,,,sub-10,08/08/2001,1: Male,21/10/2023,002,1: right,2023_Oct_21_1020,[FINAL]_fmri_multiplication,2021.2.3,59.97611583
block5.xlsx,223.9,7.5,4.3,4 x 4,20,4,4 x 4 = 20,small-sized_low-interference,small-sized,low-interference,5,IncorrectRESP,d,0,0,0,0,0,16,16,16,,,,,,,,,,,,,,,230.25473672099906,None,230.75463602599848,None,232.7546671559994,None,233.50413461799872,None,233.7548381,None,233.7548381,None,a,0,0.5205347419996542,233.7548381,None,234.30392118599957,None,234.30392118599957,None,d,0.33939829300106794,234.30392118599957,None,234.67077388199868,None,,,,,,,,,,,,,sub-10,08/08/2001,1: Male,21/10/2023,002,1: right,2023_Oct_21_1020,[FINAL]_fmri_multiplication,2021.2.3,59.97611583
block5.xlsx,235.7,7.5,9.9,6 x 7,48,23,7 x 6 = 48,large-sized_high-interference,large-sized,high-interference,22,IncorrectRESP,d,0,0,0,0,0,17,17,17,,,,,,,,,,,,,,,238.97131581199938,None,239.47116021999864,None,241.47151164699972,None,242.2212206159984,None,242.47074099499878,None,242.47074099499878,None,a,0,0.596551904,242.47074099499878,None,243.08778402699863,None,243.08778402699863,None,d,0.2756064629993489,243.08778402699863,None,243.38791886099898,None,,,,,,,,,,,,,sub-10,08/08/2001,1: Male,21/10/2023,002,1: right,2023_Oct_21_1020,[FINAL]_fmri_multiplication,2021.2.3,59.97611583
block5.xlsx,253.1,7.5,3.1,9 x 2,18,2,2 x 9 = 18,small-sized_low-interference,small-sized,low-interference,7,CorrectRESP,a,0,0,0,0,0,18,18,18,,,,,,,,,,,,,,,253.2881258059988,None,253.78750248599863,None,255.78801412399844,None,256.53803984799924,None,256.78681032699933,None,256.78681032699933,None,d,0,0.4885467099993548,256.78681032699933,None,257.3044039869983,None,257.3044039869983,None,d,0.15496302399878914,257.3044039869983,None,257.4879290529989,None,,,,,,,,,,,,,sub-10,08/08/2001,1: Male,21/10/2023,002,1: right,2023_Oct_21_1020,[FINAL]_fmri_multiplication,2021.2.3,59.97611583
block5.xlsx,263.7,7.5,4.6,5 x 9,40,15,9 x 5 = 40,large-sized_low-interference,large-sized,low-interference,6,IncorrectRESP,d,0,0,0,0,0,19,19,19,,,,,,,,,,,,,,,260.5879461559998,None,261.0867199,None,263.0879127579992,None,263.83794617499916,None,264.08798186499916,None,264.08798186499916,None,a,0,0.4913881880002009,264.08798186499916,None,264.60400809399835,None,264.60400809399835,None,d,0.23137416300050972,264.60400809399835,None,264.85418668499915,None,,,,,,,,,,,,,sub-10,08/08/2001,1: Male,21/10/2023,002,1: right,2023_Oct_21_1020,[FINAL]_fmri_multiplication,2021.2.3,59.97611583
block5.xlsx,275.8,7.5,3.9,7 x 8,63,22,8 x 7 = 63,large-sized_high-interference,large-sized,high-interference,9,IncorrectRESP,d,0,0,0,0,0,20,20,20,,,,,,,,,,,,,,,269.45467044699944,None,269.9544783019992,None,271.9547466519998,None,272.7041745569986,None,272.95465585199963,None,272.95465585199963,None,a,0,0.5846416250005859,272.95465585199963,None,273.57019666199994,None,273.57019666199994,None,d,0.30513130800136423,273.57019666199994,None,273.90463261699915,None,,,,,,,,,,,,,sub-10,08/08/2001,1: Male,21/10/2023,002,1: right,2023_Oct_21_1020,[FINAL]_fmri_multiplication,2021.2.3,59.97611583
block5.xlsx,287.2,7.5,7.4,4 x 3,15,9,3 x 4 = 15,small-sized_high-interference,small-sized,high-interference,10,IncorrectRESP,d,0,0,0,0,0,21,21,21,,,,,,,,,,,,,,,277.8046923419988,None,278.30479979199845,None,280.3051565409987,None,281.05505454099875,None,281.30533175799974,None,281.30533175799974,None,a,0,0.5859402199985198,281.30533175799974,None,281.92161410599874,None,281.92161410599874,None,d,0.2657410530009656,281.92161410599874,None,282.2046334439983,None,,,,,,,,,,,,,sub-10,08/08/2001,1: Male,21/10/2023,002,1: right,2023_Oct_21_1020,[FINAL]_fmri_multiplication,2021.2.3,59.97611583
block5.xlsx,302.1,7.5,7.1,4 x 8,32,24,8 x 4 = 32,large-sized_high-interference,large-sized,high-interference,25,CorrectRESP,a,0,0,0,0,0,22,22,22,,,,,,,,,,,,,,,289.6044873379997,None,290.10454170499906,None,292.1046804059988,None,292.8547005649998,None,293.10482003499965,None,293.10482003499965,None,d,0,0.578470014,293.10482003499965,None,293.7042943669985,None,293.7042943669985,None,d,0.1950234800006001,293.7042943669985,None,293.92090130199904,None,,,,,,,,,,,,,sub-10,08/08/2001,1: Male,21/10/2023,002,1: right,2023_Oct_21_1020,[FINAL]_fmri_multiplication,2021.2.3,59.97611583
block5.xlsx,316.7,7.5,10.8,6 x 6,36,13,6 x 6 = 36,large-sized_low-interference,large-sized,low-interference,4,CorrectRESP,a,0,0,0,0,0,23,23,23,,,,,,,,,,,,,,,301.0212668,None,301.5212357319997,None,303.52080913399914,None,304.27086806899933,None,304.5217918089984,None,304.5217918089984,None,d,0,0.3935782050011767,304.5217918089984,None,304.9375219959984,None,304.9375219959984,None,d,0.16178901700004644,304.9375219959984,None,305.1208435389999,None,,,,,,,,,,,,,sub-10,08/08/2001,1: Male,21/10/2023,002,1: right,2023_Oct_21_1020,[FINAL]_fmri_multiplication,2021.2.3,59.97611583
block5.xlsx,,,,,,,,,,,,,,0,0,0,0,,,,,0,0,0,0,,,,,,,,,,,,,,,,,,,,,,,,,,,,,,,,,,,,,,315.9277884129988,None,315.9277884129988,None,,,,,,,,,sub-10,08/08/2001,1: Male,21/10/2023,002,1: right,2023_Oct_21_1020,[FINAL]_fmri_multiplication,2021.2.3,59.97611583
block5.xlsx,,,,,,,,,,,,,,0,0,0,0,,,,,1,0,1,0,,,,,,,,,,,,,,,,,,,,,,,,,,,,,,,,,,,,,,316.9408424049998,None,316.9408424049998,None,,,,,,,,,sub-10,08/08/2001,1: Male,21/10/2023,002,1: right,2023_Oct_21_1020,[FINAL]_fmri_multiplication,2021.2.3,59.97611583
block5.xlsx,,,,,,,,,,,,,,0,0,0,0,,,,,2,0,2,0,,,,,,,,,,,,,,,,,,,,,,,,,,,,,,,,,,,,,,317.9400615179984,None,317.9400615179984,None,,,,,,,,,sub-10,08/08/2001,1: Male,21/10/2023,002,1: right,2023_Oct_21_1020,[FINAL]_fmri_multiplication,2021.2.3,59.97611583
block5.xlsx,,,,,,,,,,,,,,0,0,0,0,,,,,3,0,3,0,,,,,,,,,,,,,,,,,,,,,,,,,,,,,,,,,,,,,,318.9400378449991,None,318.9400378449991,None,,,,,,,,,sub-10,08/08/2001,1: Male,21/10/2023,002,1: right,2023_Oct_21_1020,[FINAL]_fmri_multiplication,2021.2.3,59.97611583
block5.xlsx,,,,,,,,,,,,,,0,0,0,0,,,,,4,0,4,0,,,,,,,,,,,,,,,,,,,,,,,,,,,,,,,,,,,,,,319.93909550699937,None,319.93909550699937,None,,,,,,,,,sub-10,08/08/2001,1: Male,21/10/2023,002,1: right,2023_Oct_21_1020,[FINAL]_fmri_multiplication,2021.2.3,59.97611583
block5.xlsx,,,,,,,,,,,,,,0,0,0,0,,,,,5,0,5,0,,,,,,,,,,,,,,,,,,,,,,,,,,,,,,,,,,,,,,320.93878091199986,None,320.93878091199986,None,,,,,,,,,sub-10,08/08/2001,1: Male,21/10/2023,002,1: right,2023_Oct_21_1020,[FINAL]_fmri_multiplication,2021.2.3,59.97611583
block5.xlsx,,,,,,,,,,,,,,0,0,0,0,,,,,6,0,6,0,,,,,,,,,,,,,,,,,,,,,,,,,,,,,,,,,,,,,,321.94012123799985,None,321.94012123799985,None,,,,,,,,,sub-10,08/08/2001,1: Male,21/10/2023,002,1: right,2023_Oct_21_1020,[FINAL]_fmri_multiplication,2021.2.3,59.97611583
block5.xlsx,,,,,,,,,,,,,,0,0,0,0,,,,,7,0,7,0,,,,,,,,,,,,,,,,,,,,,,,,,,,,,,,,,,,,,,322.9380068499995,None,322.9380068499995,None,,,,,,,,,sub-10,08/08/2001,1: Male,21/10/2023,002,1: right,2023_Oct_21_1020,[FINAL]_fmri_multiplication,2021.2.3,59.97611583
block5.xlsx,,,,,,,,,,,,,,0,0,0,0,,,,,8,0,8,0,,,,,,,,,,,,,,,,,,,,,,,,,,,,,,,,,,,,,,323.93834172399875,None,323.93834172399875,None,,,,,,,,,sub-10,08/08/2001,1: Male,21/10/2023,002,1: right,2023_Oct_21_1020,[FINAL]_fmri_multiplication,2021.2.3,59.97611583
block5.xlsx,,,,,,,,,,,,,,0,0,0,0,,,,,9,0,9,0,,,,,,,,,,,,,,,,,,,,,,,,,,,,,,,,,,,,,,324.9370362439986,None,324.9370362439986,None,,,,,,,,,sub-10,08/08/2001,1: Male,21/10/2023,002,1: right,2023_Oct_21_1020,[FINAL]_fmri_multiplication,2021.2.3,59.97611583
block5.xlsx,,,,,,,,,,,,,,0,0,0,0,,,,,10,0,10,0,,,,,,,,,,,,,,,,,,,,,,,,,,,,,,,,,,,,,,325.9376353059997,None,325.9376353059997,None,,,,,,,,,sub-10,08/08/2001,1: Male,21/10/2023,002,1: right,2023_Oct_21_1020,[FINAL]_fmri_multiplication,2021.2.3,59.97611583
block5.xlsx,,,,,,,,,,,,,,0,0,0,0,,,,,11,0,11,0,,,,,,,,,,,,,,,,,,,,,,,,,,,,,,,,,,,,,,326.9376706839994,None,326.9376706839994,None,,,,,,,,,sub-10,08/08/2001,1: Male,21/10/2023,002,1: right,2023_Oct_21_1020,[FINAL]_fmri_multiplication,2021.2.3,59.97611583
block5.xlsx,,,,,,,,,,,,,,0,0,0,0,,,,,12,0,12,0,,,,,,,,,,,,,,,,,,,,,,,,,,,,,,,,,,,,,,327.93844863899903,None,327.93844863899903,None,,,,,,,,,sub-10,08/08/2001,1: Male,21/10/2023,002,1: right,2023_Oct_21_1020,[FINAL]_fmri_multiplication,2021.2.3,59.97611583
block5.xlsx,,,,,,,,,,,,,,0,0,0,0,,,,,13,0,13,0,,,,,,,,,,,,,,,,,,,,,,,,,,,,,,,,,,,,,,328.9410164209985,None,328.9410164209985,None,,,,,,,,,sub-10,08/08/2001,1: Male,21/10/2023,002,1: right,2023_Oct_21_1020,[FINAL]_fmri_multiplication,2021.2.3,59.97611583
block5.xlsx,,,,,,,,,,,,,,0,0,0,0,,,,,14,0,14,0,,,,,,,,,,,,,,,,,,,,,,,,,,,,,,,,,,,,,,329.9385410269988,None,329.9385410269988,None,,,,,,,,,sub-10,08/08/2001,1: Male,21/10/2023,002,1: right,2023_Oct_21_1020,[FINAL]_fmri_multiplication,2021.2.3,59.97611583
block5.xlsx,,,,,,,,,,,,,,0,0,0,0,,,,,15,0,15,0,,,,,,,,,,,,,,,,,,,,,,,,,,,,,,,,,,,,,,330.93851678899955,None,330.93851678899955,None,,,,,,,,,sub-10,08/08/2001,1: Male,21/10/2023,002,1: right,2023_Oct_21_1020,[FINAL]_fmri_multiplication,2021.2.3,59.97611583
block5.xlsx,,,,,,,,,,,,,,0,0,0,0,,,,,16,0,16,0,,,,,,,,,,,,,,,,,,,,,,,,,,,,,,,,,,,,,,331.9383295509997,None,331.9383295509997,None,,,,,,,,,sub-10,08/08/2001,1: Male,21/10/2023,002,1: right,2023_Oct_21_1020,[FINAL]_fmri_multiplication,2021.2.3,59.97611583
block5.xlsx,,,,,,,,,,,,,,0,0,0,0,,,,,17,0,17,0,,,,,,,,,,,,,,,,,,,,,,,,,,,,,,,,,,,,,,332.9368510289987,None,332.9368510289987,None,,,,,,,,,sub-10,08/08/2001,1: Male,21/10/2023,002,1: right,2023_Oct_21_1020,[FINAL]_fmri_multiplication,2021.2.3,59.97611583
block5.xlsx,,,,,,,,,,,,,,0,0,0,0,,,,,18,0,18,0,,,,,,,,,,,,,,,,,,,,,,,,,,,,,,,,,,,,,,333.9377945589986,None,333.9377945589986,None,,,,,,,,,sub-10,08/08/2001,1: Male,21/10/2023,002,1: right,2023_Oct_21_1020,[FINAL]_fmri_multiplication,2021.2.3,59.97611583
block5.xlsx,,,,,,,,,,,,,,0,0,0,0,,,,,19,0,19,0,,,,,,,,,,,,,,,,,,,,,,,,,,,,,,,,,,,,,,334.9387235129998,None,334.9387235129998,None,,,,,,,,,sub-10,08/08/2001,1: Male,21/10/2023,002,1: right,2023_Oct_21_1020,[FINAL]_fmri_multiplication,2021.2.3,59.97611583
block5.xlsx,,,,,,,,,,,,,,0,0,0,0,,,,,20,0,20,0,,,,,,,,,,,,,,,,,,,,,,,,,,,,,,,,,,,,,,335.93799095599934,None,335.93799095599934,None,,,,,,,,,sub-10,08/08/2001,1: Male,21/10/2023,002,1: right,2023_Oct_21_1020,[FINAL]_fmri_multiplication,2021.2.3,59.97611583
block5.xlsx,,,,,,,,,,,,,,0,0,0,0,,,,,21,0,21,0,,,,,,,,,,,,,,,,,,,,,,,,,,,,,,,,,,,,,,336.93797126799836,None,336.93797126799836,None,,,,,,,,,sub-10,08/08/2001,1: Male,21/10/2023,002,1: right,2023_Oct_21_1020,[FINAL]_fmri_multiplication,2021.2.3,59.97611583
block5.xlsx,,,,,,,,,,,,,,0,0,0,0,,,,,22,0,22,0,,,,,,,,,,,,,,,,,,,,,,,,,,,,,,,,,,,,,,337.9380320829987,None,337.9380320829987,None,,,,,,,,,sub-10,08/08/2001,1: Male,21/10/2023,002,1: right,2023_Oct_21_1020,[FINAL]_fmri_multiplication,2021.2.3,59.97611583
block5.xlsx,,,,,,,,,,,,,,0,0,0,0,,,,,23,0,23,0,,,,,,,,,,,,,,,,,,,,,,,,,,,,,,,,,,,,,,338.93776264999906,None,338.93776264999906,None,,,,,,,,,sub-10,08/08/2001,1: Male,21/10/2023,002,1: right,2023_Oct_21_1020,[FINAL]_fmri_multiplication,2021.2.3,59.97611583
block5.xlsx,,,,,,,,,,,,,,0,0,0,0,,,,,24,0,24,0,,,,,,,,,,,,,,,,,,,,,,,,,,,,,,,,,,,,,,339.9380820999995,None,339.9380820999995,None,,,,,,,,,sub-10,08/08/2001,1: Male,21/10/2023,002,1: right,2023_Oct_21_1020,[FINAL]_fmri_multiplication,2021.2.3,59.97611583
block5.xlsx,,,,,,,,,,,,,,0,0,0,0,,,,,25,0,25,0,,,,,,,,,,,,,,,,,,,,,,,,,,,,,,,,,,,,,,340.9376702819991,None,340.9376702819991,None,,,,,,,,,sub-10,08/08/2001,1: Male,21/10/2023,002,1: right,2023_Oct_21_1020,[FINAL]_fmri_multiplication,2021.2.3,59.97611583
block5.xlsx,,,,,,,,,,,,,,0,0,0,0,,,,,26,0,26,0,,,,,,,,,,,,,,,,,,,,,,,,,,,,,,,,,,,,,,341.93816551799864,None,341.93816551799864,None,,,,,,,,,sub-10,08/08/2001,1: Male,21/10/2023,002,1: right,2023_Oct_21_1020,[FINAL]_fmri_multiplication,2021.2.3,59.97611583
block5.xlsx,,,,,,,,,,,,,,0,0,0,0,,,,,27,0,27,0,,,,,,,,,,,,,,,,,,,,,,,,,,,,,,,,,,,,,,342.9372416569986,None,342.9372416569986,None,,,,,,,,,sub-10,08/08/2001,1: Male,21/10/2023,002,1: right,2023_Oct_21_1020,[FINAL]_fmri_multiplication,2021.2.3,59.97611583
block5.xlsx,,,,,,,,,,,,,,0,0,0,0,,,,,28,0,28,0,,,,,,,,,,,,,,,,,,,,,,,,,,,,,,,,,,,,,,343.93746354799987,None,343.93746354799987,None,,,,,,,,,sub-10,08/08/2001,1: Male,21/10/2023,002,1: right,2023_Oct_21_1020,[FINAL]_fmri_multiplication,2021.2.3,59.97611583
block5.xlsx,,,,,,,,,,,,,,0,0,0,0,,,,,29,0,29,0,,,,,,,,,,,,,,,,,,,,,,,,,,,,,,,,,,,,,,344.94052248999833,None,344.94052248999833,None,,,,,,,,,sub-10,08/08/2001,1: Male,21/10/2023,002,1: right,2023_Oct_21_1020,[FINAL]_fmri_multiplication,2021.2.3,59.97611583
block5.xlsx,,,,,,,,,,,,,,0,0,0,0,,,,,,,,,,,,,,,,,,,,,,,,,,,,,,,,,,,,,,,,,,,,,,,,,,,,,,,,,,sub-10,08/08/2001,1: Male,21/10/2023,002,1: right,2023_Oct_21_1020,[FINAL]_fmri_multiplication,2021.2.3,59.97611583
block6.xlsx,10,7.5,4.1,6 x 5,36,14,5 x 6 = 36,large-sized_low-interference,large-sized,low-interference,6,IncorrectRESP,d,0,1,1,1,0,0,0,0,,,,,,,,,,,,,345.93885926499934,None,355.95987359099854,None,356.43779926499883,None,358.4380447079984,None,359.1880887219995,None,359.4377391959988,None,359.4377391959988,None,a,0,0.6455509339994023,359.4377391959988,None,360.1041175929986,None,360.1041175929986,None,d,0.4031581229992298,360.1041175929986,None,360.53748499799985,None,,,,,,,,,,,,,sub-10,08/08/2001,1: Male,21/10/2023,002,1: right,2023_Oct_21_1020,[FINAL]_fmri_multiplication,2021.2.3,59.97611583
block6.xlsx,21.6,7.5,7.2,2 x 6,10,6,6 x 2 = 10,small-sized_low-interference,small-sized,low-interference,3,IncorrectRESP,d,0,1,1,1,0,1,1,1,,,,,,,,,,,,,,,364.6377368449994,None,365.1382970199993,None,367.13813977299833,None,367.88793288599845,None,368.1380239479986,None,368.1380239479986,None,a,0,0.48934904399902734,368.1380239479986,None,368.65392749299826,None,368.65392749299826,None,d,0.3173450239992235,368.65392749299826,None,368.9875416599989,None,,,,,,,,,,,,,sub-10,08/08/2001,1: Male,21/10/2023,002,1: right,2023_Oct_21_1020,[FINAL]_fmri_multiplication,2021.2.3,59.97611583
block6.xlsx,36.3,7.5,13.8,6 x 7,42,23,7 x 6 = 42,large-sized_high-interference,large-sized,high-interference,22,CorrectRESP,a,0,1,1,1,0,2,2,2,,,,,,,,,,,,,,,376.1875437589988,None,376.6879263849987,None,378.6879988949986,None,379.4375638699985,None,379.6878680389982,None,379.6878680389982,None,d,0,0.4755501149993506,379.6878680389982,None,380.1876288689982,None,380.1876288689982,None,d,0.18362725199949637,380.1876288689982,None,380.3880285639989,None,,,,,,,,,,,,,sub-10,08/08/2001,1: Male,21/10/2023,002,1: right,2023_Oct_21_1020,[FINAL]_fmri_multiplication,2021.2.3,59.97611583
block6.xlsx,57.6,7.5,3.7,3 x 7,21,11,7 x 3 = 21,small-sized_high-interference,small-sized,high-interference,13,CorrectRESP,a,0,1,1,1,0,3,3,3,,,,,,,,,,,,,,,394.18782960599856,None,394.6876356089997,None,396.6879963679985,None,397.43795731799946,None,397.6876953109986,None,397.6876953109986,None,d,0,0.4596276760003093,397.6876953109986,None,398.1709438199996,None,398.1709438199996,None,d,0.1842845720002515,398.1709438199996,None,398.3880929049992,None,,,,,,,,,,,,,sub-10,08/08/2001,1: Male,21/10/2023,002,1: right,2023_Oct_21_1020,[FINAL]_fmri_multiplication,2021.2.3,59.97611583
block6.xlsx,68.8,7.5,7.8,2 x 7,12,1,7 x 2 = 12,small-sized_low-interference,small-sized,low-interference,4,IncorrectRESP,d,0,1,1,1,0,4,4,4,,,,,,,,,,,,,,,402.0880017979998,None,402.58794902499903,None,404.5879523299991,None,405.3380052899993,None,405.5878775939982,None,405.5878775939982,None,a,0,0.47150867900018056,405.5878775939982,None,406.0863753329995,None,406.0863753329995,None,d,0.24490135199994256,406.0863753329995,None,406.35418261199993,None,,,,,,,,,,,,,sub-10,08/08/2001,1: Male,21/10/2023,002,1: right,2023_Oct_21_1020,[FINAL]_fmri_multiplication,2021.2.3,59.97611583
block6.xlsx,84.1,7.5,8.6,3 x 9,24,19,9 x 3 = 24,large-sized_high-interference,large-sized,high-interference,9,IncorrectRESP,d,0,1,1,1,0,5,5,5,,,,,,,,,,,,,,,414.1547980309988,None,414.6547072329995,None,416.65468208899983,None,417.40481156499845,None,417.65465336299894,None,417.65465336299894,None,a,0,0.5166592679997848,417.65465336299894,None,418.18818754099993,None,418.18818754099993,None,d,0.27119163300085347,418.18818754099993,None,418.4880619689993,None,,,,,,,,,,,,,sub-10,08/08/2001,1: Male,21/10/2023,002,1: right,2023_Oct_21_1020,[FINAL]_fmri_multiplication,2021.2.3,59.97611583
block6.xlsx,100.2,7.5,3.3,4 x 6,24,10,6 x 4 = 24,small-sized_high-interference,small-sized,high-interference,12,CorrectRESP,a,0,1,1,1,0,6,6,6,,,,,,,,,,,,,,,427.0883100639985,None,427.5879960179991,None,429.58804318499824,None,430.3379459659991,None,430.5878843499995,None,430.5878843499995,None,d,0,0.42349260299852176,430.5878843499995,None,431.0373120709992,None,431.0373120709992,None,d,0.19800082100118743,431.0373120709992,None,431.253886,None,,,,,,,,,,,,,sub-10,08/08/2001,1: Male,21/10/2023,002,1: right,2023_Oct_21_1020,[FINAL]_fmri_multiplication,2021.2.3,59.97611583
block6.xlsx,111,7.5,6.3,9 x 2,16,2,2 x 9 = 16,small-sized_low-interference,small-sized,low-interference,7,IncorrectRESP,d,0,1,1,1,0,7,7,7,,,,,,,,,,,,,,,434.5549336269996,None,435.05456128899823,None,437.05468147399915,None,437.80461325099895,None,438.0545133609994,None,438.0545133609994,None,a,0,0.6128526539996528,438.0545133609994,None,438.6874761629988,None,438.6874761629988,None,d,0.37987159399926895,438.6874761629988,None,439.08751034599845,None,,,,,,,,,,,,,sub-10,08/08/2001,1: Male,21/10/2023,002,1: right,2023_Oct_21_1020,[FINAL]_fmri_multiplication,2021.2.3,59.97611583
block6.xlsx,124.8,7.5,3.1,6 x 6,30,13,6 x 6 = 30,large-sized_low-interference,large-sized,low-interference,4,IncorrectRESP,d,0,1,1,1,0,8,8,8,,,,,,,,,,,,,,,445.3880110279988,None,445.88798013799897,None,447.8875718699983,None,448.63797088999854,None,448.88819256999886,None,448.88819256999886,None,a,0,0.5151991919992724,448.88819256999886,None,449.4211336699991,None,449.4211336699991,None,d,0.3101607700009481,449.4211336699991,None,449.7542382769989,None,,,,,,,,,,,,,sub-10,08/08/2001,1: Male,21/10/2023,002,1: right,2023_Oct_21_1020,[FINAL]_fmri_multiplication,2021.2.3,59.97611583
block6.xlsx,135.4,7.5,2.7,5 x 4,16,8,4 x 5 = 16,small-sized_high-interference,small-sized,high-interference,8,IncorrectRESP,d,0,1,1,1,0,9,9,9,,,,,,,,,,,,,,,452.8542974079992,None,453.35472242499964,None,455.3550810119996,None,456.1052084699986,None,456.35491265499877,None,456.35491265499877,None,a,0,0.5603855340013979,456.35491265499877,None,456.93798230899847,None,456.93798230899847,None,d,0.3214049829985015,456.93798230899847,None,457.2883787369992,None,,,,,,,,,,,,,sub-10,08/08/2001,1: Male,21/10/2023,002,1: right,2023_Oct_21_1020,[FINAL]_fmri_multiplication,2021.2.3,59.97611583
block6.xlsx,145.6,7.5,5.1,5 x 5,25,3,5 x 5 = 25,small-sized_low-interference,small-sized,low-interference,3,CorrectRESP,a,0,1,1,1,0,10,10,10,,,,,,,,,,,,,,,459.98834158499994,None,460.4879958149995,None,462.4883288409983,None,463.2382280109996,None,463.4878371199993,None,463.4878371199993,None,d,0,0.4674383849996957,463.4878371199993,None,463.98799880599836,None,463.98799880599836,None,d,0.15936087800037058,463.98799880599836,None,464.1708713079988,None,,,,,,,,,,,,,sub-10,08/08/2001,1: Male,21/10/2023,002,1: right,2023_Oct_21_1020,[FINAL]_fmri_multiplication,2021.2.3,59.97611583
block6.xlsx,158.2,7.5,2.9,7 x 7,56,18,7 x 7 = 56,large-sized_low-interference,large-sized,low-interference,7,IncorrectRESP,d,0,1,1,1,0,11,11,11,,,,,,,,,,,,,,,469.27141726099944,None,469.77123194999876,None,471.7712820259985,None,472.5213781879993,None,472.7697257739983,None,472.7697257739983,None,a,0,0.5935934559984162,472.7697257739983,None,473.38742699499926,None,473.38742699499926,None,d,0.44799844900080643,473.38742699499926,None,473.85413942799823,None,,,,,,,,,,,,,sub-10,08/08/2001,1: Male,21/10/2023,002,1: right,2023_Oct_21_1020,[FINAL]_fmri_multiplication,2021.2.3,59.97611583
block6.xlsx,168.6,7.5,5.7,3 x 6,15,7,6 x 3 = 15,small-sized_high-interference,small-sized,high-interference,8,IncorrectRESP,d,0,1,1,1,0,12,12,12,,,,,,,,,,,,,,,476.75475730999824,None,477.25457670299875,None,479.25465256699863,None,480.00453967499925,None,480.25445245899937,None,480.25445245899937,None,a,0,0.6049289350012259,480.25445245899937,None,480.88797452699873,None,480.88797452699873,None,d,0.33143407500028843,480.88797452699873,None,481.23753935699824,None,,,,,,,,,,,,,sub-10,08/08/2001,1: Male,21/10/2023,002,1: right,2023_Oct_21_1020,[FINAL]_fmri_multiplication,2021.2.3,59.97611583
block6.xlsx,181.8,7.5,3,2 x 8,16,5,8 x 2 = 16,small-sized_low-interference,small-sized,low-interference,7,CorrectRESP,a,0,1,1,1,0,13,13,13,,,,,,,,,,,,,,,486.9381042,None,487.43768175199875,None,489.43778295299853,None,490.1852104,None,490.43029004799973,None,490.43029004799973,None,d,0,0.40501964099894394,490.43029004799973,None,490.8546482439997,None,490.8546482439997,None,d,0.1807289780008432,490.8546482439997,None,491.0546761759997,None,,,,,,,,,,,,,sub-10,08/08/2001,1: Male,21/10/2023,002,1: right,2023_Oct_21_1020,[FINAL]_fmri_multiplication,2021.2.3,59.97611583
block6.xlsx,192.3,7.5,5.9,5 x 9,45,15,9 x 5 = 45,large-sized_low-interference,large-sized,low-interference,6,CorrectRESP,a,0,1,1,1,0,14,14,14,,,,,,,,,,,,,,,494.0546104419991,None,494.5538571819998,None,496.55501454099976,None,497.30504726099934,None,497.5553312,None,497.5553312,None,d,0,0.4399813970012474,497.5553312,None,498.0207036219999,None,498.0207036219999,None,d,0.15069941799993103,498.0207036219999,None,498.18824396799937,None,,,,,,,,,,,,,sub-10,08/08/2001,1: Male,21/10/2023,002,1: right,2023_Oct_21_1020,[FINAL]_fmri_multiplication,2021.2.3,59.97611583
block6.xlsx,205.7,7.5,2.1,4 x 3,12,9,3 x 4 = 12,small-sized_high-interference,small-sized,high-interference,10,CorrectRESP,a,0,1,1,1,0,15,15,15,,,,,,,,,,,,,,,504.0880496329992,None,504.5879265329986,None,506.58814399699986,None,507.3380013499991,None,507.58762446499895,None,507.58762446499895,None,d,0,0.42371076199924573,507.58762446499895,None,508.0372880119994,None,508.0372880119994,None,d,0.1741100359995471,508.0372880119994,None,508.2378844599989,None,,,,,,,,,,,,,sub-10,08/08/2001,1: Male,21/10/2023,002,1: right,2023_Oct_21_1020,[FINAL]_fmri_multiplication,2021.2.3,59.97611583
block6.xlsx,215.3,7.5,9.9,7 x 8,56,22,8 x 7 = 56,large-sized_high-interference,large-sized,high-interference,9,CorrectRESP,a,0,1,1,1,0,16,16,16,,,,,,,,,,,,,,,510.3379731999994,None,510.83737863699935,None,512.8375379919999,None,513.5879173239991,None,513.8364062839992,None,513.8364062839992,None,d,0,0.4308861600002274,513.8364062839992,None,514.2874278939998,None,514.2874278939998,None,d,0.1718916949994309,514.2874278939998,None,514.4879311319983,None,,,,,,,,,,,,,sub-10,08/08/2001,1: Male,21/10/2023,002,1: right,2023_Oct_21_1020,[FINAL]_fmri_multiplication,2021.2.3,59.97611583
block6.xlsx,232.7,7.5,2.2,8 x 3,21,12,3 x 8 = 21,small-sized_high-interference,small-sized,high-interference,13,IncorrectRESP,d,0,1,1,1,0,17,17,17,,,,,,,,,,,,,,,524.3882789009986,None,524.8880454729988,None,526.8846044969996,None,527.6262006,None,527.8729796579992,None,527.8729796579992,None,a,0,0.5942748670004221,527.8729796579992,None,528.4878706,None,528.4878706,None,d,0.3475526499987609,528.4878706,None,528.8545921,None,,,,,,,,,,,,,sub-10,08/08/2001,1: Male,21/10/2023,002,1: right,2023_Oct_21_1020,[FINAL]_fmri_multiplication,2021.2.3,59.97611583
block6.xlsx,242.4,7.5,7.9,9 x 9,81,16,9 x 9 = 81,large-sized_low-interference,large-sized,low-interference,6,CorrectRESP,a,0,1,1,1,0,18,18,18,,,,,,,,,,,,,,,531.0549925199994,None,531.5549299,None,533.5706514799986,None,534.3214554669994,None,534.5714238699984,None,534.5714238699984,None,d,0,0.3920034109996777,534.5714238699984,None,534.9876460779997,None,534.9876460779997,None,d,0.18367933300032746,534.9876460779997,None,535.1876179,None,,,,,,,,,,,,,sub-10,08/08/2001,1: Male,21/10/2023,002,1: right,2023_Oct_21_1020,[FINAL]_fmri_multiplication,2021.2.3,59.97611583
block6.xlsx,257.8,7.5,8.3,9 x 4,32,20,4 x 9 = 32,large-sized_high-interference,large-sized,high-interference,9,IncorrectRESP,d,0,1,1,1,0,19,19,19,,,,,,,,,,,,,,,543.0880721139984,None,543.587722,None,545.5879331289998,None,546.3379943569998,None,546.5877450429998,None,546.5877450429998,None,a,0,0.607551022,546.5877450429998,None,547.2208135829987,None,547.2208135829987,None,d,0.4545335849998082,547.2208135829987,None,547.7047401669988,None,,,,,,,,,,,,,sub-10,08/08/2001,1: Male,21/10/2023,002,1: right,2023_Oct_21_1020,[FINAL]_fmri_multiplication,2021.2.3,59.97611583
block6.xlsx,273.6,7.5,12.1,5 x 7,35,17,7 x 5 = 35,large-sized_low-interference,large-sized,low-interference,7,CorrectRESP,a,0,1,1,1,0,20,20,20,,,,,,,,,,,,,,,556.0043136,None,556.5042982919986,None,558.5046986819998,None,559.2549468119996,None,559.5049383499991,None,559.5049383499991,None,d,0,0.42634966999867174,559.5049383499991,None,559.9546319749988,None,559.9546319749988,None,d,0.17665320500054804,559.9546319749988,None,560.1517775209995,None,,,,,,,,,,,,,sub-10,08/08/2001,1: Male,21/10/2023,002,1: right,2023_Oct_21_1020,[FINAL]_fmri_multiplication,2021.2.3,59.97611583
block6.xlsx,293.2,7.5,4.1,4 x 8,28,24,8 x 4 = 28,large-sized_high-interference,large-sized,high-interference,25,IncorrectRESP,d,0,1,1,1,0,21,21,21,,,,,,,,,,,,,,,572.2546330019995,None,572.7545982989996,None,574.7549095459999,None,575.5046250859996,None,575.7545311839986,None,575.7545311839986,None,a,0,0.49678321899955336,575.7545311839986,None,576.2707316279993,None,576.2707316279993,None,d,0.3246450200003892,576.2707316279993,None,576.6208261859992,None,,,,,,,,,,,,,sub-10,08/08/2001,1: Male,21/10/2023,002,1: right,2023_Oct_21_1020,[FINAL]_fmri_multiplication,2021.2.3,59.97611583
block6.xlsx,304.8,7.5,6.7,4 x 4,16,4,4 x 4 = 16,small-sized_low-interference,small-sized,low-interference,5,CorrectRESP,a,0,1,1,1,0,22,22,22,,,,,,,,,,,,,,,580.7208399729989,None,581.2208127519989,None,583.2209992289991,None,583.9712917379984,None,584.2211131089989,None,584.2211131089989,None,d,0,0.40628218700112484,584.2211131089989,None,584.6545552449988,None,584.6545552449988,None,d,0.17283687899907818,584.6545552449988,None,584.8547209229982,None,,,,,,,,,,,,,sub-10,08/08/2001,1: Male,21/10/2023,002,1: right,2023_Oct_21_1020,[FINAL]_fmri_multiplication,2021.2.3,59.97611583
block6.xlsx,319,7.5,8.5,8 x 5,40,21,5 x 8 = 40,large-sized_high-interference,large-sized,high-interference,9,CorrectRESP,a,0,1,1,1,0,23,23,23,,,,,,,,,,,,,,,591.5546223749989,None,592.0545669289986,None,594.0548136419984,None,594.8049375439987,None,595.0542145339987,None,595.0542145339987,None,d,0,0.3969970309990458,595.0542145339987,None,595.4758872639995,None,595.4758872639995,None,d,0.15956722800001444,595.4758872639995,None,595.6550629719986,None,,,,,,,,,,,,,sub-10,08/08/2001,1: Male,21/10/2023,002,1: right,2023_Oct_21_1020,[FINAL]_fmri_multiplication,2021.2.3,59.97611583
block6.xlsx,,,,,,,,,,,,,,0,1,1,1,,,,,0,0,0,0,,,,,,,,,,,,,,,,,,,,,,,,,,,,,,,,,,,,,,604.1562132,None,604.1562132,None,,,,,,,,,sub-10,08/08/2001,1: Male,21/10/2023,002,1: right,2023_Oct_21_1020,[FINAL]_fmri_multiplication,2021.2.3,59.97611583
block6.xlsx,,,,,,,,,,,,,,0,1,1,1,,,,,1,0,1,0,,,,,,,,,,,,,,,,,,,,,,,,,,,,,,,,,,,,,,605.1711407999992,None,605.1711407999992,None,,,,,,,,,sub-10,08/08/2001,1: Male,21/10/2023,002,1: right,2023_Oct_21_1020,[FINAL]_fmri_multiplication,2021.2.3,59.97611583
block6.xlsx,,,,,,,,,,,,,,0,1,1,1,,,,,2,0,2,0,,,,,,,,,,,,,,,,,,,,,,,,,,,,,,,,,,,,,,606.1709546059992,None,606.1709546059992,None,,,,,,,,,sub-10,08/08/2001,1: Male,21/10/2023,002,1: right,2023_Oct_21_1020,[FINAL]_fmri_multiplication,2021.2.3,59.97611583
block6.xlsx,,,,,,,,,,,,,,0,1,1,1,,,,,3,0,3,0,,,,,,,,,,,,,,,,,,,,,,,,,,,,,,,,,,,,,,607.1704228149993,None,607.1704228149993,None,,,,,,,,,sub-10,08/08/2001,1: Male,21/10/2023,002,1: right,2023_Oct_21_1020,[FINAL]_fmri_multiplication,2021.2.3,59.97611583
block6.xlsx,,,,,,,,,,,,,,0,1,1,1,,,,,4,0,4,0,,,,,,,,,,,,,,,,,,,,,,,,,,,,,,,,,,,,,,608.1715724749993,None,608.1715724749993,None,,,,,,,,,sub-10,08/08/2001,1: Male,21/10/2023,002,1: right,2023_Oct_21_1020,[FINAL]_fmri_multiplication,2021.2.3,59.97611583
block6.xlsx,,,,,,,,,,,,,,0,1,1,1,,,,,5,0,5,0,,,,,,,,,,,,,,,,,,,,,,,,,,,,,,,,,,,,,,609.1722326279996,None,609.1722326279996,None,,,,,,,,,sub-10,08/08/2001,1: Male,21/10/2023,002,1: right,2023_Oct_21_1020,[FINAL]_fmri_multiplication,2021.2.3,59.97611583
block6.xlsx,,,,,,,,,,,,,,0,1,1,1,,,,,6,0,6,0,,,,,,,,,,,,,,,,,,,,,,,,,,,,,,,,,,,,,,610.1717246169992,None,610.1717246169992,None,,,,,,,,,sub-10,08/08/2001,1: Male,21/10/2023,002,1: right,2023_Oct_21_1020,[FINAL]_fmri_multiplication,2021.2.3,59.97611583
block6.xlsx,,,,,,,,,,,,,,0,1,1,1,,,,,7,0,7,0,,,,,,,,,,,,,,,,,,,,,,,,,,,,,,,,,,,,,,611.1715939049991,None,611.1715939049991,None,,,,,,,,,sub-10,08/08/2001,1: Male,21/10/2023,002,1: right,2023_Oct_21_1020,[FINAL]_fmri_multiplication,2021.2.3,59.97611583
block6.xlsx,,,,,,,,,,,,,,0,1,1,1,,,,,8,0,8,0,,,,,,,,,,,,,,,,,,,,,,,,,,,,,,,,,,,,,,612.1717475179994,None,612.1717475179994,None,,,,,,,,,sub-10,08/08/2001,1: Male,21/10/2023,002,1: right,2023_Oct_21_1020,[FINAL]_fmri_multiplication,2021.2.3,59.97611583
block6.xlsx,,,,,,,,,,,,,,0,1,1,1,,,,,9,0,9,0,,,,,,,,,,,,,,,,,,,,,,,,,,,,,,,,,,,,,,613.1712968549982,None,613.1712968549982,None,,,,,,,,,sub-10,08/08/2001,1: Male,21/10/2023,002,1: right,2023_Oct_21_1020,[FINAL]_fmri_multiplication,2021.2.3,59.97611583
block6.xlsx,,,,,,,,,,,,,,0,1,1,1,,,,,10,0,10,0,,,,,,,,,,,,,,,,,,,,,,,,,,,,,,,,,,,,,,614.1712680349992,None,614.1712680349992,None,,,,,,,,,sub-10,08/08/2001,1: Male,21/10/2023,002,1: right,2023_Oct_21_1020,[FINAL]_fmri_multiplication,2021.2.3,59.97611583
block6.xlsx,,,,,,,,,,,,,,0,1,1,1,,,,,11,0,11,0,,,,,,,,,,,,,,,,,,,,,,,,,,,,,,,,,,,,,,615.1722861969993,None,615.1722861969993,None,,,,,,,,,sub-10,08/08/2001,1: Male,21/10/2023,002,1: right,2023_Oct_21_1020,[FINAL]_fmri_multiplication,2021.2.3,59.97611583
block6.xlsx,,,,,,,,,,,,,,0,1,1,1,,,,,12,0,12,0,,,,,,,,,,,,,,,,,,,,,,,,,,,,,,,,,,,,,,616.1716055549987,None,616.1716055549987,None,,,,,,,,,sub-10,08/08/2001,1: Male,21/10/2023,002,1: right,2023_Oct_21_1020,[FINAL]_fmri_multiplication,2021.2.3,59.97611583
block6.xlsx,,,,,,,,,,,,,,0,1,1,1,,,,,13,0,13,0,,,,,,,,,,,,,,,,,,,,,,,,,,,,,,,,,,,,,,617.1722309099987,None,617.1722309099987,None,,,,,,,,,sub-10,08/08/2001,1: Male,21/10/2023,002,1: right,2023_Oct_21_1020,[FINAL]_fmri_multiplication,2021.2.3,59.97611583
block6.xlsx,,,,,,,,,,,,,,0,1,1,1,,,,,14,0,14,0,,,,,,,,,,,,,,,,,,,,,,,,,,,,,,,,,,,,,,618.1716802739993,None,618.1716802739993,None,,,,,,,,,sub-10,08/08/2001,1: Male,21/10/2023,002,1: right,2023_Oct_21_1020,[FINAL]_fmri_multiplication,2021.2.3,59.97611583
block6.xlsx,,,,,,,,,,,,,,0,1,1,1,,,,,15,0,15,0,,,,,,,,,,,,,,,,,,,,,,,,,,,,,,,,,,,,,,619.1717132,None,619.1717132,None,,,,,,,,,sub-10,08/08/2001,1: Male,21/10/2023,002,1: right,2023_Oct_21_1020,[FINAL]_fmri_multiplication,2021.2.3,59.97611583
block6.xlsx,,,,,,,,,,,,,,0,1,1,1,,,,,16,0,16,0,,,,,,,,,,,,,,,,,,,,,,,,,,,,,,,,,,,,,,620.1715326019985,None,620.1715326019985,None,,,,,,,,,sub-10,08/08/2001,1: Male,21/10/2023,002,1: right,2023_Oct_21_1020,[FINAL]_fmri_multiplication,2021.2.3,59.97611583
block6.xlsx,,,,,,,,,,,,,,0,1,1,1,,,,,17,0,17,0,,,,,,,,,,,,,,,,,,,,,,,,,,,,,,,,,,,,,,621.1709568799997,None,621.1709568799997,None,,,,,,,,,sub-10,08/08/2001,1: Male,21/10/2023,002,1: right,2023_Oct_21_1020,[FINAL]_fmri_multiplication,2021.2.3,59.97611583
block6.xlsx,,,,,,,,,,,,,,0,1,1,1,,,,,18,0,18,0,,,,,,,,,,,,,,,,,,,,,,,,,,,,,,,,,,,,,,622.1718060539988,None,622.1718060539988,None,,,,,,,,,sub-10,08/08/2001,1: Male,21/10/2023,002,1: right,2023_Oct_21_1020,[FINAL]_fmri_multiplication,2021.2.3,59.97611583
block6.xlsx,,,,,,,,,,,,,,0,1,1,1,,,,,19,0,19,0,,,,,,,,,,,,,,,,,,,,,,,,,,,,,,,,,,,,,,623.1720558,None,623.1720558,None,,,,,,,,,sub-10,08/08/2001,1: Male,21/10/2023,002,1: right,2023_Oct_21_1020,[FINAL]_fmri_multiplication,2021.2.3,59.97611583
block6.xlsx,,,,,,,,,,,,,,0,1,1,1,,,,,20,0,20,0,,,,,,,,,,,,,,,,,,,,,,,,,,,,,,,,,,,,,,624.1713418,None,624.1713418,None,,,,,,,,,sub-10,08/08/2001,1: Male,21/10/2023,002,1: right,2023_Oct_21_1020,[FINAL]_fmri_multiplication,2021.2.3,59.97611583
block6.xlsx,,,,,,,,,,,,,,0,1,1,1,,,,,21,0,21,0,,,,,,,,,,,,,,,,,,,,,,,,,,,,,,,,,,,,,,625.1719328589988,None,625.1719328589988,None,,,,,,,,,sub-10,08/08/2001,1: Male,21/10/2023,002,1: right,2023_Oct_21_1020,[FINAL]_fmri_multiplication,2021.2.3,59.97611583
block6.xlsx,,,,,,,,,,,,,,0,1,1,1,,,,,22,0,22,0,,,,,,,,,,,,,,,,,,,,,,,,,,,,,,,,,,,,,,626.1728285739991,None,626.1728285739991,None,,,,,,,,,sub-10,08/08/2001,1: Male,21/10/2023,002,1: right,2023_Oct_21_1020,[FINAL]_fmri_multiplication,2021.2.3,59.97611583
block6.xlsx,,,,,,,,,,,,,,0,1,1,1,,,,,23,0,23,0,,,,,,,,,,,,,,,,,,,,,,,,,,,,,,,,,,,,,,627.1713947489989,None,627.1713947489989,None,,,,,,,,,sub-10,08/08/2001,1: Male,21/10/2023,002,1: right,2023_Oct_21_1020,[FINAL]_fmri_multiplication,2021.2.3,59.97611583
block6.xlsx,,,,,,,,,,,,,,0,1,1,1,,,,,24,0,24,0,,,,,,,,,,,,,,,,,,,,,,,,,,,,,,,,,,,,,,628.1696824339997,None,628.1696824339997,None,,,,,,,,,sub-10,08/08/2001,1: Male,21/10/2023,002,1: right,2023_Oct_21_1020,[FINAL]_fmri_multiplication,2021.2.3,59.97611583
block6.xlsx,,,,,,,,,,,,,,0,1,1,1,,,,,25,0,25,0,,,,,,,,,,,,,,,,,,,,,,,,,,,,,,,,,,,,,,629.1714193389998,None,629.1714193389998,None,,,,,,,,,sub-10,08/08/2001,1: Male,21/10/2023,002,1: right,2023_Oct_21_1020,[FINAL]_fmri_multiplication,2021.2.3,59.97611583
block6.xlsx,,,,,,,,,,,,,,0,1,1,1,,,,,26,0,26,0,,,,,,,,,,,,,,,,,,,,,,,,,,,,,,,,,,,,,,630.1714739359995,None,630.1714739359995,None,,,,,,,,,sub-10,08/08/2001,1: Male,21/10/2023,002,1: right,2023_Oct_21_1020,[FINAL]_fmri_multiplication,2021.2.3,59.97611583
block6.xlsx,,,,,,,,,,,,,,0,1,1,1,,,,,27,0,27,0,,,,,,,,,,,,,,,,,,,,,,,,,,,,,,,,,,,,,,631.1720949909995,None,631.1720949909995,None,,,,,,,,,sub-10,08/08/2001,1: Male,21/10/2023,002,1: right,2023_Oct_21_1020,[FINAL]_fmri_multiplication,2021.2.3,59.97611583
block6.xlsx,,,,,,,,,,,,,,0,1,1,1,,,,,28,0,28,0,,,,,,,,,,,,,,,,,,,,,,,,,,,,,,,,,,,,,,632.1735856089999,None,632.1735856089999,None,,,,,,,,,sub-10,08/08/2001,1: Male,21/10/2023,002,1: right,2023_Oct_21_1020,[FINAL]_fmri_multiplication,2021.2.3,59.97611583
block6.xlsx,,,,,,,,,,,,,,0,1,1,1,,,,,29,0,29,0,,,,,,,,,,,,,,,,,,,,,,,,,,,,,,,,,,,,,,633.1715889399984,None,633.1715889399984,None,,,,,,,,,sub-10,08/08/2001,1: Male,21/10/2023,002,1: right,2023_Oct_21_1020,[FINAL]_fmri_multiplication,2021.2.3,59.97611583
block6.xlsx,,,,,,,,,,,,,,0,1,1,1,,,,,,,,,,,,,,,,,,,,,,,,,,,,,,,,,,,,,,,,,,,,,,,,,,,,,,,,,,sub-10,08/08/2001,1: Male,21/10/2023,002,1: right,2023_Oct_21_1020,[FINAL]_fmri_multiplication,2021.2.3,59.97611583
block7.xlsx,10,7.5,4,2 x 7,14,1,7 x 2 = 14,small-sized_low-interference,small-sized,low-interference,4,CorrectRESP,a,0,2,2,2,0,0,0,0,,,,,,,,,,,,,634.1732026889986,None,644.1936805,None,644.6696441479999,None,646.6713499799989,None,647.4211338259993,None,647.6697321249994,None,647.6697321249994,None,d,0,0.7176620699992782,647.6697321249994,None,648.4047038219996,None,648.4047038219996,None,d,0.1906210650013236,648.4047038219996,None,648.6209689399984,None,,,,,,,,,,,,,sub-10,08/08/2001,1: Male,21/10/2023,002,1: right,2023_Oct_21_1020,[FINAL]_fmri_multiplication,2021.2.3,59.97611583
block7.xlsx,21.5,7.5,14.2,3 x 6,15,7,6 x 3 = 15,small-sized_high-interference,small-sized,high-interference,8,IncorrectRESP,d,0,2,2,2,0,1,1,1,,,,,,,,,,,,,,,652.6216472729993,None,653.1211732429983,None,655.1212776389984,None,655.8711826529998,None,656.1212863759993,None,656.1212863759993,None,a,0,0.48207525399993756,656.1212863759993,None,656.6209801609984,None,656.6209801609984,None,d,0.2703170240001782,656.6209801609984,None,656.9209236089991,None,,,,,,,,,,,,,sub-10,08/08/2001,1: Male,21/10/2023,002,1: right,2023_Oct_21_1020,[FINAL]_fmri_multiplication,2021.2.3,59.97611583
block7.xlsx,43.2,7.5,5.1,2 x 7,12,1,7 x 2 = 12,small-sized_low-interference,small-sized,low-interference,4,IncorrectRESP,d,0,2,2,2,0,2,2,2,,,,,,,,,,,,,,,671.1216956549997,None,671.6215592,None,673.6215908749982,None,674.3711988099985,None,674.6195813139984,None,674.6195813139984,None,a,0,0.47175961900029506,674.6195813139984,None,675.1214009139985,None,675.1214009139985,None,d,0.34600899099859816,675.1214009139985,None,675.4875342279993,None,,,,,,,,,,,,,sub-10,08/08/2001,1: Male,21/10/2023,002,1: right,2023_Oct_21_1020,[FINAL]_fmri_multiplication,2021.2.3,59.97611583
block7.xlsx,55.8,7.5,3.4,5 x 9,40,15,9 x 5 = 40,large-sized_low-interference,large-sized,low-interference,6,IncorrectRESP,d,0,2,2,2,0,3,3,3,,,,,,,,,,,,,,,680.5882202839985,None,681.0884153889983,None,683.088134,None,683.8377311819986,None,684.0880827859983,None,684.0880827859983,None,a,0,0.49937314800081367,684.0880827859983,None,684.6045606259995,None,684.6045606259995,None,d,0.33473076399968704,684.6045606259995,None,684.9712079779983,None,,,,,,,,,,,,,sub-10,08/08/2001,1: Male,21/10/2023,002,1: right,2023_Oct_21_1020,[FINAL]_fmri_multiplication,2021.2.3,59.97611583
block7.xlsx,66.7,7.5,2.9,5 x 5,30,3,5 x 5 = 30,small-sized_low-interference,small-sized,low-interference,3,IncorrectRESP,d,0,2,2,2,0,4,4,4,,,,,,,,,,,,,,,688.3714219629983,None,688.8709693899982,None,690.8712326079985,None,691.6211196559998,None,691.8706418249985,None,691.8706418249985,None,a,0,0.5406778800006578,691.8706418249985,None,692.4375224939995,None,692.4375224939995,None,d,0.34179591900101514,692.4375224939995,None,692.8039320109983,None,,,,,,,,,,,,,sub-10,08/08/2001,1: Male,21/10/2023,002,1: right,2023_Oct_21_1020,[FINAL]_fmri_multiplication,2021.2.3,59.97611583
block7.xlsx,77.1,7.5,13.9,5 x 7,40,17,7 x 5 = 40,large-sized_low-interference,large-sized,low-interference,7,IncorrectRESP,d,0,2,2,2,0,5,5,5,,,,,,,,,,,,,,,695.7046816289985,None,696.2038527319983,None,698.2045324,None,698.9544222749992,None,699.2047008619993,None,699.2047008619993,None,a,0,0.574679258,699.2047008619993,None,699.8038191439991,None,699.8038191439991,None,d,0.31155396699978155,699.8038191439991,None,700.1378748889983,None,,,,,,,,,,,,,sub-10,08/08/2001,1: Male,21/10/2023,002,1: right,2023_Oct_21_1020,[FINAL]_fmri_multiplication,2021.2.3,59.97611583
block7.xlsx,98.5,7.5,2.6,2 x 8,16,5,8 x 2 = 16,small-sized_low-interference,small-sized,low-interference,7,CorrectRESP,a,0,2,2,2,0,6,6,6,,,,,,,,,,,,,,,714.0379974479984,None,714.5380274449999,None,716.5381649649989,None,717.288047,None,717.5379232509986,None,717.5379232509986,None,d,0,0.6173631199999363,717.5379232509986,None,718.1879507929989,None,718.1879507929989,None,d,0.15935258399986196,718.1879507929989,None,718.3708305609998,None,,,,,,,,,,,,,sub-10,08/08/2001,1: Male,21/10/2023,002,1: right,2023_Oct_21_1020,[FINAL]_fmri_multiplication,2021.2.3,59.97611583
block7.xlsx,108.6,7.5,11.6,3 x 6,18,7,6 x 3 = 18,small-sized_high-interference,small-sized,high-interference,8,CorrectRESP,a,0,2,2,2,0,7,7,7,,,,,,,,,,,,,,,720.9712471629991,None,721.4710811,None,723.4713879399987,None,724.2208795,None,724.4708863649994,None,724.4708863649994,None,d,0,0.4603990649993648,724.4708863649994,None,724.9541693619994,None,724.9541693619994,None,d,0.16121202700014692,724.9541693619994,None,725.1376175469995,None,,,,,,,,,,,,,sub-10,08/08/2001,1: Male,21/10/2023,002,1: right,2023_Oct_21_1020,[FINAL]_fmri_multiplication,2021.2.3,59.97611583
block7.xlsx,127.7,7.5,5,5 x 5,25,3,5 x 5 = 25,small-sized_low-interference,small-sized,low-interference,3,CorrectRESP,a,0,2,2,2,0,8,8,8,,,,,,,,,,,,,,,736.7383238029997,None,737.2383883,None,739.2383976489982,None,739.9882073,None,740.2393742309996,None,740.2393742309996,None,d,0,0.4759975279994251,740.2393742309996,None,740.7378918569993,None,740.7378918569993,None,d,0.1613977890010574,740.7378918569993,None,740.9213349949987,None,,,,,,,,,,,,,sub-10,08/08/2001,1: Male,21/10/2023,002,1: right,2023_Oct_21_1020,[FINAL]_fmri_multiplication,2021.2.3,59.97611583
block7.xlsx,140.2,7.5,2.8,6 x 6,36,13,6 x 6 = 36,large-sized_low-interference,large-sized,low-interference,4,CorrectRESP,a,0,2,2,2,0,9,9,9,,,,,,,,,,,,,,,745.9214585399986,None,746.4214145779988,None,748.4213378299992,None,749.1710108479983,None,749.4199120479989,None,749.4199120479989,None,d,0,0.4633780719996139,749.4199120479989,None,749.9042193779987,None,749.9042193779987,None,d,0.16307326900096086,749.9042193779987,None,750.0875665299991,None,,,,,,,,,,,,,sub-10,08/08/2001,1: Male,21/10/2023,002,1: right,2023_Oct_21_1020,[FINAL]_fmri_multiplication,2021.2.3,59.97611583
block7.xlsx,150.5,7.5,2,3 x 7,21,11,7 x 3 = 21,small-sized_high-interference,small-sized,high-interference,13,CorrectRESP,a,0,2,2,2,0,10,10,10,,,,,,,,,,,,,,,752.8872655099985,None,753.3877835,None,755.3880316819996,None,756.1380080619983,None,756.3877440789984,None,756.3877440789984,None,d,0,0.4475999790010974,756.3877440789984,None,756.8542019289998,None,756.8542019289998,None,d,0.1891919420013437,756.8542019289998,None,757.0713078319986,None,,,,,,,,,,,,,sub-10,08/08/2001,1: Male,21/10/2023,002,1: right,2023_Oct_21_1020,[FINAL]_fmri_multiplication,2021.2.3,59.97611583
block7.xlsx,160,7.5,2.7,6 x 7,48,23,7 x 6 = 48,large-sized_high-interference,large-sized,high-interference,22,IncorrectRESP,d,0,2,2,2,0,11,11,11,,,,,,,,,,,,,,,759.0712858179995,None,759.5712556769995,None,761.5712556269991,None,762.3215481209991,None,762.5714934569987,None,762.5714934569987,None,a,0,0.5118146180011536,762.5714934569987,None,763.1034437009985,None,763.1034437009985,None,d,0.36392498100030934,763.1034437009985,None,763.4875020109994,None,,,,,,,,,,,,,sub-10,08/08/2001,1: Male,21/10/2023,002,1: right,2023_Oct_21_1020,[FINAL]_fmri_multiplication,2021.2.3,59.97611583
block7.xlsx,170.2,7.5,7,5 x 7,35,17,7 x 5 = 35,large-sized_low-interference,large-sized,low-interference,7,CorrectRESP,a,0,2,2,2,0,12,12,12,,,,,,,,,,,,,,,766.1880279579982,None,766.6875591,None,768.6880776129983,None,769.4379985379983,None,769.6879461169992,None,769.6879461169992,None,d,0,0.4353519639989827,769.6879461169992,None,770.154888,None,770.154888,None,d,0.1684091580009408,770.154888,None,770.3549728659982,None,,,,,,,,,,,,,sub-10,08/08/2001,1: Male,21/10/2023,002,1: right,2023_Oct_21_1020,[FINAL]_fmri_multiplication,2021.2.3,59.97611583
block7.xlsx,184.7,7.5,3,3 x 9,27,19,9 x 3 = 27,large-sized_high-interference,large-sized,high-interference,9,CorrectRESP,a,0,2,2,2,0,13,13,13,,,,,,,,,,,,,,,777.3511490669989,None,777.8466196789996,None,779.8550677929998,None,780.6047183,None,780.8548322669994,None,780.8548322669994,None,d,0,0.4524478999992425,780.8548322669994,None,781.3375051329986,None,781.3375051329986,None,d,0.1618151430011494,781.3375051329986,None,781.5207384679998,None,,,,,,,,,,,,,sub-10,08/08/2001,1: Male,21/10/2023,002,1: right,2023_Oct_21_1020,[FINAL]_fmri_multiplication,2021.2.3,59.97611583
block7.xlsx,195.2,7.5,7.1,4 x 3,15,9,3 x 4 = 15,small-sized_high-interference,small-sized,high-interference,10,IncorrectRESP,d,0,2,2,2,0,14,14,14,,,,,,,,,,,,,,,784.5217376709988,None,785.0208114369998,None,787.0213085889991,None,787.7880617189985,None,788.0376090139998,None,788.0376090139998,None,a,0,0.5577741079996485,788.0376090139998,None,788.6209395959995,None,788.6209395959995,None,d,0.38244592400042166,788.6209395959995,None,789.0208719109996,None,,,,,,,,,,,,,sub-10,08/08/2001,1: Male,21/10/2023,002,1: right,2023_Oct_21_1020,[FINAL]_fmri_multiplication,2021.2.3,59.97611583
block7.xlsx,209.8,7.5,3.9,2 x 8,18,5,8 x 2 = 18,small-sized_low-interference,small-sized,low-interference,7,IncorrectRESP,d,0,2,2,2,0,15,15,15,,,,,,,,,,,,,,,796.1208958079987,None,796.6210391,None,798.6212996899994,None,799.3708621599999,None,799.6207900879999,None,799.6207900879999,None,a,0,0.502478215,799.6207900879999,None,800.1542855279986,None,800.1542855279986,None,d,0.3130842249993293,800.1542855279986,None,800.4875051319996,None,,,,,,,,,,,,,sub-10,08/08/2001,1: Male,21/10/2023,002,1: right,2023_Oct_21_1020,[FINAL]_fmri_multiplication,2021.2.3,59.97611583
block7.xlsx,221.2,7.5,13.2,8 x 5,40,21,5 x 8 = 40,large-sized_high-interference,large-sized,high-interference,9,CorrectRESP,a,0,2,2,2,0,16,16,16,,,,,,,,,,,,,,,804.3880650949995,None,804.8879239069993,None,806.8938147929985,None,807.6345057509989,None,807.8801278,None,807.8801278,None,d,0,0.3871265340003447,807.8801278,None,808.2879625789992,None,808.2879625789992,None,d,0.21141615600026853,808.2879625789992,None,808.5213032319989,None,,,,,,,,,,,,,sub-10,08/08/2001,1: Male,21/10/2023,002,1: right,2023_Oct_21_1020,[FINAL]_fmri_multiplication,2021.2.3,59.97611583
block7.xlsx,241.9,7.5,8.7,3 x 7,24,11,7 x 3 = 24,small-sized_high-interference,small-sized,high-interference,13,IncorrectRESP,d,0,2,2,2,0,17,17,17,,,,,,,,,,,,,,,821.7213283639994,None,822.2213309,None,824.2213252769998,None,824.9712780869995,None,825.2207594109987,None,825.2207594109987,None,a,0,0.5426472499984811,825.2207594109987,None,825.7875221509985,None,825.7875221509985,None,d,0.3758655620003992,825.7875221509985,None,826.1879333,None,,,,,,,,,,,,,sub-10,08/08/2001,1: Male,21/10/2023,002,1: right,2023_Oct_21_1020,[FINAL]_fmri_multiplication,2021.2.3,59.97611583
block7.xlsx,258.1,7.5,8.1,6 x 6,30,13,6 x 6 = 30,large-sized_low-interference,large-sized,low-interference,4,IncorrectRESP,d,0,2,2,2,0,18,18,18,,,,,,,,,,,,,,,834.8879422459995,None,835.3874702239991,None,837.3880717459997,None,838.1368014809996,None,838.3882560419988,None,838.3882560419988,None,a,0,0.4711113530011062,838.3882560419988,None,838.8866500819986,None,838.8866500819986,None,d,0.3966214060001221,838.8866500819986,None,839.3041344129997,None,,,,,,,,,,,,,sub-10,08/08/2001,1: Male,21/10/2023,002,1: right,2023_Oct_21_1020,[FINAL]_fmri_multiplication,2021.2.3,59.97611583
block7.xlsx,273.7,7.5,8.2,8 x 5,45,21,5 x 8 = 45,large-sized_high-interference,large-sized,high-interference,9,IncorrectRESP,d,0,2,2,2,0,19,19,19,,,,,,,,,,,,,,,847.400583,None,847.8970031479985,None,849.9049671,None,850.6548104179983,None,850.9045072509998,None,850.9045072509998,None,a,0,0.5388903190014389,850.9045072509998,None,851.4708658719992,None,851.4708658719992,None,d,0.42843551199985086,851.4708658719992,None,851.9208221,None,,,,,,,,,,,,,sub-10,08/08/2001,1: Male,21/10/2023,002,1: right,2023_Oct_21_1020,[FINAL]_fmri_multiplication,2021.2.3,59.97611583
block7.xlsx,289.4,7.5,5.5,4 x 3,12,9,3 x 4 = 12,small-sized_high-interference,small-sized,high-interference,10,CorrectRESP,a,0,2,2,2,0,20,20,20,,,,,,,,,,,,,,,860.1215091319991,None,860.6207458499994,None,862.6210696339986,None,863.3714038,None,863.6211700069998,None,863.6211700069998,None,d,0,0.45422232000055374,863.6211700069998,None,864.1043287489993,None,864.1043287489993,None,d,0.2110309799991228,864.1043287489993,None,864.3376457319991,None,,,,,,,,,,,,,sub-10,08/08/2001,1: Male,21/10/2023,002,1: right,2023_Oct_21_1020,[FINAL]_fmri_multiplication,2021.2.3,59.97611583
block7.xlsx,302.4,7.5,4.8,3 x 9,24,19,9 x 3 = 24,large-sized_high-interference,large-sized,high-interference,9,IncorrectRESP,d,0,2,2,2,0,21,21,21,,,,,,,,,,,,,,,869.8377031719992,None,870.3374656209999,None,872.3380422089995,None,873.0880806,None,873.3365975379984,None,873.3365975379984,None,a,0,0.5946657180011243,873.3365975379984,None,873.9543525679983,None,873.9543525679983,None,d,0.4810038600007829,873.9543525679983,None,874.4543867329994,None,,,,,,,,,,,,,sub-10,08/08/2001,1: Male,21/10/2023,002,1: right,2023_Oct_21_1020,[FINAL]_fmri_multiplication,2021.2.3,59.97611583
block7.xlsx,314.7,7.5,2.5,5 x 9,45,15,9 x 5 = 45,large-sized_low-interference,large-sized,low-interference,6,CorrectRESP,a,0,2,2,2,0,22,22,22,,,,,,,,,,,,,,,879.2511415469999,None,879.7462292259988,None,881.7552259799995,None,882.5050244879985,None,882.7532861,None,882.7532861,None,d,0,0.4979950619999727,882.7532861,None,883.2711557179991,None,883.2711557179991,None,d,0.19620423299966205,883.2711557179991,None,883.4879950199993,None,,,,,,,,,,,,,sub-10,08/08/2001,1: Male,21/10/2023,002,1: right,2023_Oct_21_1020,[FINAL]_fmri_multiplication,2021.2.3,59.97611583
block7.xlsx,324.7,7.5,2.8,6 x 7,42,23,7 x 6 = 42,large-sized_high-interference,large-sized,high-interference,22,CorrectRESP,a,0,2,2,2,0,23,23,23,,,,,,,,,,,,,,,885.9879321459994,None,886.4879724139992,None,888.4881110709994,None,889.2377097,None,889.4880623939989,None,889.4880623939989,None,d,0,0.4671993489992019,889.4880623939989,None,889.9874921,None,889.9874921,None,d,0.1598272690007434,889.9874921,None,890.1713950949998,None,,,,,,,,,,,,,sub-10,08/08/2001,1: Male,21/10/2023,002,1: right,2023_Oct_21_1020,[FINAL]_fmri_multiplication,2021.2.3,59.97611583
block7.xlsx,,,,,,,,,,,,,,0,2,2,2,,,,,0,0,0,0,,,,,,,,,,,,,,,,,,,,,,,,,,,,,,,,,,,,,,892.9709740269991,None,892.9709740269991,None,,,,,,,,,sub-10,08/08/2001,1: Male,21/10/2023,002,1: right,2023_Oct_21_1020,[FINAL]_fmri_multiplication,2021.2.3,59.97611583
block7.xlsx,,,,,,,,,,,,,,0,2,2,2,,,,,1,0,1,0,,,,,,,,,,,,,,,,,,,,,,,,,,,,,,,,,,,,,,893.9710565609985,893.9710565609985,893.9710565609985,893.9710565609985,,,,,,,,,sub-10,08/08/2001,1: Male,21/10/2023,002,1: right,2023_Oct_21_1020,[FINAL]_fmri_multiplication,2021.2.3,59.97611583
block7.xlsx,,,,,,,,,,,,,,0,2,2,2,,,,,2,0,2,0,,,,,,,,,,,,,,,,,,,,,,,,,,,,,,,,,,,,,,894.9712465939992,894.9712465939992,894.9712465939992,894.9712465939992,,,,,,,,,sub-10,08/08/2001,1: Male,21/10/2023,002,1: right,2023_Oct_21_1020,[FINAL]_fmri_multiplication,2021.2.3,59.97611583
block7.xlsx,,,,,,,,,,,,,,0,2,2,2,,,,,3,0,3,0,,,,,,,,,,,,,,,,,,,,,,,,,,,,,,,,,,,,,,895.9698022709999,895.9698022709999,895.9698022709999,895.9698022709999,,,,,,,,,sub-10,08/08/2001,1: Male,21/10/2023,002,1: right,2023_Oct_21_1020,[FINAL]_fmri_multiplication,2021.2.3,59.97611583
block7.xlsx,,,,,,,,,,,,,,0,2,2,2,,,,,4,0,4,0,,,,,,,,,,,,,,,,,,,,,,,,,,,,,,,,,,,,,,896.9711971779998,896.9711971779998,896.9711971779998,896.9711971779998,,,,,,,,,sub-10,08/08/2001,1: Male,21/10/2023,002,1: right,2023_Oct_21_1020,[FINAL]_fmri_multiplication,2021.2.3,59.97611583
block7.xlsx,,,,,,,,,,,,,,0,2,2,2,,,,,5,0,5,0,,,,,,,,,,,,,,,,,,,,,,,,,,,,,,,,,,,,,,897.971287,897.971287,897.971287,897.971287,,,,,,,,,sub-10,08/08/2001,1: Male,21/10/2023,002,1: right,2023_Oct_21_1020,[FINAL]_fmri_multiplication,2021.2.3,59.97611583
block7.xlsx,,,,,,,,,,,,,,0,2,2,2,,,,,6,0,6,0,,,,,,,,,,,,,,,,,,,,,,,,,,,,,,,,,,,,,,898.9722867579985,898.9722867579985,898.9722867579985,898.9722867579985,,,,,,,,,sub-10,08/08/2001,1: Male,21/10/2023,002,1: right,2023_Oct_21_1020,[FINAL]_fmri_multiplication,2021.2.3,59.97611583
block7.xlsx,,,,,,,,,,,,,,0,2,2,2,,,,,7,0,7,0,,,,,,,,,,,,,,,,,,,,,,,,,,,,,,,,,,,,,,899.9722042109988,899.9722042109988,899.9722042109988,899.9722042109988,,,,,,,,,sub-10,08/08/2001,1: Male,21/10/2023,002,1: right,2023_Oct_21_1020,[FINAL]_fmri_multiplication,2021.2.3,59.97611583
block7.xlsx,,,,,,,,,,,,,,0,2,2,2,,,,,8,0,8,0,,,,,,,,,,,,,,,,,,,,,,,,,,,,,,,,,,,,,,900.9879824319996,None,900.9879824319996,None,,,,,,,,,sub-10,08/08/2001,1: Male,21/10/2023,002,1: right,2023_Oct_21_1020,[FINAL]_fmri_multiplication,2021.2.3,59.97611583
block7.xlsx,,,,,,,,,,,,,,0,2,2,2,,,,,9,0,9,0,,,,,,,,,,,,,,,,,,,,,,,,,,,,,,,,,,,,,,901.9881418379991,None,901.9881418379991,None,,,,,,,,,sub-10,08/08/2001,1: Male,21/10/2023,002,1: right,2023_Oct_21_1020,[FINAL]_fmri_multiplication,2021.2.3,59.97611583
block7.xlsx,,,,,,,,,,,,,,0,2,2,2,,,,,10,0,10,0,,,,,,,,,,,,,,,,,,,,,,,,,,,,,,,,,,,,,,902.9885681889991,None,902.9885681889991,None,,,,,,,,,sub-10,08/08/2001,1: Male,21/10/2023,002,1: right,2023_Oct_21_1020,[FINAL]_fmri_multiplication,2021.2.3,59.97611583
block7.xlsx,,,,,,,,,,,,,,0,2,2,2,,,,,11,0,11,0,,,,,,,,,,,,,,,,,,,,,,,,,,,,,,,,,,,,,,903.9865966879988,None,903.9865966879988,None,,,,,,,,,sub-10,08/08/2001,1: Male,21/10/2023,002,1: right,2023_Oct_21_1020,[FINAL]_fmri_multiplication,2021.2.3,59.97611583
block7.xlsx,,,,,,,,,,,,,,0,2,2,2,,,,,12,0,12,0,,,,,,,,,,,,,,,,,,,,,,,,,,,,,,,,,,,,,,904.9867611,None,904.9867611,None,,,,,,,,,sub-10,08/08/2001,1: Male,21/10/2023,002,1: right,2023_Oct_21_1020,[FINAL]_fmri_multiplication,2021.2.3,59.97611583
block7.xlsx,,,,,,,,,,,,,,0,2,2,2,,,,,13,0,13,0,,,,,,,,,,,,,,,,,,,,,,,,,,,,,,,,,,,,,,905.9899134199986,None,905.9899134199986,None,,,,,,,,,sub-10,08/08/2001,1: Male,21/10/2023,002,1: right,2023_Oct_21_1020,[FINAL]_fmri_multiplication,2021.2.3,59.97611583
block7.xlsx,,,,,,,,,,,,,,0,2,2,2,,,,,14,0,14,0,,,,,,,,,,,,,,,,,,,,,,,,,,,,,,,,,,,,,,906.9900413349988,None,906.9900413349988,None,,,,,,,,,sub-10,08/08/2001,1: Male,21/10/2023,002,1: right,2023_Oct_21_1020,[FINAL]_fmri_multiplication,2021.2.3,59.97611583
block7.xlsx,,,,,,,,,,,,,,0,2,2,2,,,,,15,0,15,0,,,,,,,,,,,,,,,,,,,,,,,,,,,,,,,,,,,,,,907.9882891009984,None,907.9882891009984,None,,,,,,,,,sub-10,08/08/2001,1: Male,21/10/2023,002,1: right,2023_Oct_21_1020,[FINAL]_fmri_multiplication,2021.2.3,59.97611583
block7.xlsx,,,,,,,,,,,,,,0,2,2,2,,,,,16,0,16,0,,,,,,,,,,,,,,,,,,,,,,,,,,,,,,,,,,,,,,908.9883565469991,None,908.9883565469991,None,,,,,,,,,sub-10,08/08/2001,1: Male,21/10/2023,002,1: right,2023_Oct_21_1020,[FINAL]_fmri_multiplication,2021.2.3,59.97611583
block7.xlsx,,,,,,,,,,,,,,0,2,2,2,,,,,17,0,17,0,,,,,,,,,,,,,,,,,,,,,,,,,,,,,,,,,,,,,,909.9904706089983,None,909.9904706089983,None,,,,,,,,,sub-10,08/08/2001,1: Male,21/10/2023,002,1: right,2023_Oct_21_1020,[FINAL]_fmri_multiplication,2021.2.3,59.97611583
block7.xlsx,,,,,,,,,,,,,,0,2,2,2,,,,,18,0,18,0,,,,,,,,,,,,,,,,,,,,,,,,,,,,,,,,,,,,,,910.9908497249999,None,910.9908497249999,None,,,,,,,,,sub-10,08/08/2001,1: Male,21/10/2023,002,1: right,2023_Oct_21_1020,[FINAL]_fmri_multiplication,2021.2.3,59.97611583
block7.xlsx,,,,,,,,,,,,,,0,2,2,2,,,,,19,0,19,0,,,,,,,,,,,,,,,,,,,,,,,,,,,,,,,,,,,,,,911.9853792389986,None,911.9853792389986,None,,,,,,,,,sub-10,08/08/2001,1: Male,21/10/2023,002,1: right,2023_Oct_21_1020,[FINAL]_fmri_multiplication,2021.2.3,59.97611583
block7.xlsx,,,,,,,,,,,,,,0,2,2,2,,,,,20,0,20,0,,,,,,,,,,,,,,,,,,,,,,,,,,,,,,,,,,,,,,912.9729077189986,None,912.9729077189986,None,,,,,,,,,sub-10,08/08/2001,1: Male,21/10/2023,002,1: right,2023_Oct_21_1020,[FINAL]_fmri_multiplication,2021.2.3,59.97611583
block7.xlsx,,,,,,,,,,,,,,0,2,2,2,,,,,21,0,21,0,,,,,,,,,,,,,,,,,,,,,,,,,,,,,,,,,,,,,,913.9717179189993,None,913.9717179189993,None,,,,,,,,,sub-10,08/08/2001,1: Male,21/10/2023,002,1: right,2023_Oct_21_1020,[FINAL]_fmri_multiplication,2021.2.3,59.97611583
block7.xlsx,,,,,,,,,,,,,,0,2,2,2,,,,,22,0,22,0,,,,,,,,,,,,,,,,,,,,,,,,,,,,,,,,,,,,,,914.9717082939987,None,914.9717082939987,None,,,,,,,,,sub-10,08/08/2001,1: Male,21/10/2023,002,1: right,2023_Oct_21_1020,[FINAL]_fmri_multiplication,2021.2.3,59.97611583
block7.xlsx,,,,,,,,,,,,,,0,2,2,2,,,,,23,0,23,0,,,,,,,,,,,,,,,,,,,,,,,,,,,,,,,,,,,,,,915.9722446389987,None,915.9722446389987,None,,,,,,,,,sub-10,08/08/2001,1: Male,21/10/2023,002,1: right,2023_Oct_21_1020,[FINAL]_fmri_multiplication,2021.2.3,59.97611583
block7.xlsx,,,,,,,,,,,,,,0,2,2,2,,,,,24,0,24,0,,,,,,,,,,,,,,,,,,,,,,,,,,,,,,,,,,,,,,916.9859187939983,None,916.9859187939983,None,,,,,,,,,sub-10,08/08/2001,1: Male,21/10/2023,002,1: right,2023_Oct_21_1020,[FINAL]_fmri_multiplication,2021.2.3,59.97611583
block7.xlsx,,,,,,,,,,,,,,0,2,2,2,,,,,25,0,25,0,,,,,,,,,,,,,,,,,,,,,,,,,,,,,,,,,,,,,,917.9735984,None,917.9735984,None,,,,,,,,,sub-10,08/08/2001,1: Male,21/10/2023,002,1: right,2023_Oct_21_1020,[FINAL]_fmri_multiplication,2021.2.3,59.97611583
block7.xlsx,,,,,,,,,,,,,,0,2,2,2,,,,,26,0,26,0,,,,,,,,,,,,,,,,,,,,,,,,,,,,,,,,,,,,,,918.9727079489985,None,918.9727079489985,None,,,,,,,,,sub-10,08/08/2001,1: Male,21/10/2023,002,1: right,2023_Oct_21_1020,[FINAL]_fmri_multiplication,2021.2.3,59.97611583
block7.xlsx,,,,,,,,,,,,,,0,2,2,2,,,,,27,0,27,0,,,,,,,,,,,,,,,,,,,,,,,,,,,,,,,,,,,,,,919.9856801119986,None,919.9856801119986,None,,,,,,,,,sub-10,08/08/2001,1: Male,21/10/2023,002,1: right,2023_Oct_21_1020,[FINAL]_fmri_multiplication,2021.2.3,59.97611583
block7.xlsx,,,,,,,,,,,,,,0,2,2,2,,,,,28,0,28,0,,,,,,,,,,,,,,,,,,,,,,,,,,,,,,,,,,,,,,920.9875834329996,None,920.9875834329996,None,,,,,,,,,sub-10,08/08/2001,1: Male,21/10/2023,002,1: right,2023_Oct_21_1020,[FINAL]_fmri_multiplication,2021.2.3,59.97611583
block7.xlsx,,,,,,,,,,,,,,0,2,2,2,,,,,29,0,29,0,,,,,,,,,,,,,,,,,,,,,,,,,,,,,,,,,,,,,,921.9877414509992,None,921.9877414509992,None,,,,,,,,,sub-10,08/08/2001,1: Male,21/10/2023,002,1: right,2023_Oct_21_1020,[FINAL]_fmri_multiplication,2021.2.3,59.97611583
block7.xlsx,,,,,,,,,,,,,,0,2,2,2,,,,,,,,,,,,,,,,,,,,,,,,,,,,,,,,,,,,,,,,,,,,,,,,,,,,,,,,,,sub-10,08/08/2001,1: Male,21/10/2023,002,1: right,2023_Oct_21_1020,[FINAL]_fmri_multiplication,2021.2.3,59.97611583
block8.xlsx,10,7.5,4.2,9 x 9,81,16,9 x 9 = 81,large-sized_low-interference,large-sized,low-interference,6,CorrectRESP,a,0,3,3,3,0,0,0,0,,,,,,,,,,,,,922.9896313929985,None,933.0114259569982,None,933.4877661349983,None,935.4879990029985,None,936.2376923319989,None,936.4876074069998,None,936.4876074069998,None,d,0,0.4037316929989174,936.4876074069998,None,936.9212745,None,936.9212745,None,d,0.17800789500142855,936.9212745,None,937.1208513429992,None,,,,,,,,,,,,,sub-10,08/08/2001,1: Male,21/10/2023,002,1: right,2023_Oct_21_1020,[FINAL]_fmri_multiplication,2021.2.3,59.97611583
block8.xlsx,21.7,7.5,5.5,5 x 4,20,8,4 x 5 = 20,small-sized_high-interference,small-sized,high-interference,8,CorrectRESP,a,0,3,3,3,0,1,1,1,,,,,,,,,,,,,,,941.3215404419989,None,941.8208138769987,None,943.8214796199991,None,944.5715087019998,None,944.8211997059989,None,944.8211997059989,None,d,0,0.42218116100048064,944.8211997059989,None,945.2711443219996,None,945.2711443219996,None,d,0.17222865799885767,945.2711443219996,None,945.4710043259984,None,,,,,,,,,,,,,sub-10,08/08/2001,1: Male,21/10/2023,002,1: right,2023_Oct_21_1020,[FINAL]_fmri_multiplication,2021.2.3,59.97611583
block8.xlsx,34.7,7.5,13.5,9 x 4,32,20,4 x 9 = 32,large-sized_high-interference,large-sized,high-interference,9,IncorrectRESP,d,0,3,3,3,0,2,2,2,,,,,,,,,,,,,,,950.9716462029992,None,951.4713167889986,None,953.4717576229996,None,954.2217991,None,954.4719150109995,None,954.4719150109995,None,a,0,0.5154935480004497,954.4719150109995,None,955.0045533289995,None,955.0045533289995,None,d,0.34277074199962954,955.0045533289995,None,955.3709274819994,None,,,,,,,,,,,,,sub-10,08/08/2001,1: Male,21/10/2023,002,1: right,2023_Oct_21_1020,[FINAL]_fmri_multiplication,2021.2.3,59.97611583
block8.xlsx,55.7,7.5,3.1,4 x 6,24,10,6 x 4 = 24,small-sized_high-interference,small-sized,high-interference,12,CorrectRESP,a,0,3,3,3,0,3,3,3,,,,,,,,,,,,,,,968.8713217169989,None,969.3712884539982,None,971.3712309819985,None,972.1212126869996,None,972.3711148029997,None,972.3711148029997,None,d,0,0.4001519069988717,972.3711148029997,None,972.7880878869983,None,972.7880878869983,None,d,0.17532383499928983,972.7880878869983,None,972.9877008779986,None,,,,,,,,,,,,,sub-10,08/08/2001,1: Male,21/10/2023,002,1: right,2023_Oct_21_1020,[FINAL]_fmri_multiplication,2021.2.3,59.97611583
block8.xlsx,66.3,7.5,7.7,2 x 6,10,6,6 x 2 = 10,small-sized_low-interference,small-sized,low-interference,3,IncorrectRESP,d,0,3,3,3,0,4,4,4,,,,,,,,,,,,,,,976.0879439529999,None,976.5876095,None,978.5880584959996,None,979.3376763209999,None,979.5881254789983,None,979.5881254789983,None,a,0,0.4632702460003202,979.5881254789983,None,980.0711192409999,None,980.0711192409999,None,d,0.3962210879999475,980.0711192409999,None,980.4876214159995,None,,,,,,,,,,,,,sub-10,08/08/2001,1: Male,21/10/2023,002,1: right,2023_Oct_21_1020,[FINAL]_fmri_multiplication,2021.2.3,59.97611583
block8.xlsx,81.5,7.5,6.9,7 x 7,49,18,7 x 7 = 49,large-sized_low-interference,large-sized,low-interference,7,CorrectRESP,a,0,3,3,3,0,5,5,5,,,,,,,,,,,,,,,988.1846320769982,None,988.6882718199995,None,990.6879459699994,None,991.4379613819983,None,991.6877296409984,None,991.6877296409984,None,d,0,0.41157828500035976,991.6877296409984,None,992.1207012629984,None,992.1207012629984,None,d,0.17067970300013258,992.1207012629984,None,992.3214498059988,None,,,,,,,,,,,,,sub-10,08/08/2001,1: Male,21/10/2023,002,1: right,2023_Oct_21_1020,[FINAL]_fmri_multiplication,2021.2.3,59.97611583
block8.xlsx,95.9,7.5,12.3,2 x 6,12,6,6 x 2 = 12,small-sized_low-interference,small-sized,low-interference,3,CorrectRESP,a,0,3,3,3,0,6,6,6,,,,,,,,,,,,,,,999.2214310149993,None,999.7210886589983,None,1001.7213139069991,None,1002.471422913999,None,1002.7244287639987,None,1002.7244287639987,None,d,0,0.42280005600150616,1002.7244287639987,None,1003.1708948409996,None,1003.1708948409996,None,d,0.1683994229988457,1003.1708948409996,None,1003.3711984889997,None,,,,,,,,,,,,,sub-10,08/08/2001,1: Male,21/10/2023,002,1: right,2023_Oct_21_1020,[FINAL]_fmri_multiplication,2021.2.3,59.97611583
block8.xlsx,115.7,7.5,2.7,7 x 8,63,22,8 x 7 = 63,large-sized_high-interference,large-sized,high-interference,9,IncorrectRESP,d,0,3,3,3,0,7,7,7,,,,,,,,,,,,,,,1015.6714241969985,None,1016.1716063729982,None,1018.1716558149983,None,1018.9217408329987,None,1019.1717609969983,None,1019.1717609969983,None,a,0,0.5515290840012312,1019.1717609969983,None,1019.7564454579988,None,1019.7564454579988,None,d,0.3108503009989363,1019.7564454579988,None,1020.0879561429992,None,,,,,,,,,,,,,sub-10,08/08/2001,1: Male,21/10/2023,002,1: right,2023_Oct_21_1020,[FINAL]_fmri_multiplication,2021.2.3,59.97611583
block8.xlsx,125.9,7.5,7.8,9 x 2,16,2,2 x 9 = 16,small-sized_low-interference,small-sized,low-interference,7,IncorrectRESP,d,0,3,3,3,0,8,8,8,,,,,,,,,,,,,,,1022.7883476869993,None,1023.2880696269985,None,1025.2882942469987,None,1026.0381330049986,None,1026.2880947149988,None,1026.2880947149988,None,a,0,0.5392289930005063,1026.2880947149988,None,1026.8546450329995,None,1026.8546450329995,None,d,0.2526282460003131,1026.8546450329995,None,1027.1379377459998,None,,,,,,,,,,,,,sub-10,08/08/2001,1: Male,21/10/2023,002,1: right,2023_Oct_21_1020,[FINAL]_fmri_multiplication,2021.2.3,59.97611583
block8.xlsx,141.2,7.5,2.9,8 x 3,24,12,3 x 8 = 24,small-sized_high-interference,small-sized,high-interference,13,CorrectRESP,a,0,3,3,3,0,9,9,9,,,,,,,,,,,,,,,1034.937982,None,1035.4371801069992,None,1037.4373734579985,None,1038.187986,None,1038.4379077779995,None,1038.4379077779995,None,d,0,0.47748754199892574,1038.4379077779995,None,1038.9374510709986,None,1038.9374510709986,None,d,0.16982858900155406,1038.9374510709986,None,1039.1380868849992,None,,,,,,,,,,,,,sub-10,08/08/2001,1: Male,21/10/2023,002,1: right,2023_Oct_21_1020,[FINAL]_fmri_multiplication,2021.2.3,59.97611583
block8.xlsx,151.6,7.5,2,4 x 8,32,24,8 x 4 = 32,large-sized_high-interference,large-sized,high-interference,25,CorrectRESP,a,0,3,3,3,0,10,10,10,,,,,,,,,,,,,,,1042.0372866129983,None,1042.5378502129988,None,1044.5379717199994,None,1045.2878984619983,None,1045.5379668469996,None,1045.5379668469996,None,d,0,0.6013248399995064,1045.5379668469996,None,1046.1708781919988,None,1046.1708781919988,None,d,0.19254007199924672,1046.1708781919988,None,1046.387548184999,None,,,,,,,,,,,,,sub-10,08/08/2001,1: Male,21/10/2023,002,1: right,2023_Oct_21_1020,[FINAL]_fmri_multiplication,2021.2.3,59.97611583
block8.xlsx,161.1,7.5,13.1,9 x 9,72,16,9 x 9 = 72,large-sized_low-interference,large-sized,low-interference,6,IncorrectRESP,d,0,3,3,3,0,11,11,11,,,,,,,,,,,,,,,1048.3882124269985,None,1048.8875786319986,None,1050.8880774159989,None,1051.638272103999,None,1051.8883160469995,None,1051.8883160469995,None,a,0,0.8350402760006546,1051.8883160469995,None,1052.7412270809982,None,1052.7412270809982,None,d,0.29412353900079324,1052.7412270809982,None,1053.0546453359984,None,,,,,,,,,,,,,sub-10,08/08/2001,1: Male,21/10/2023,002,1: right,2023_Oct_21_1020,[FINAL]_fmri_multiplication,2021.2.3,59.97611583
block8.xlsx,181.7,7.5,2.4,5 x 4,16,8,4 x 5 = 16,small-sized_high-interference,small-sized,high-interference,8,IncorrectRESP,d,0,3,3,3,0,12,12,12,,,,,,,,,,,,,,,1066.154651,None,1066.6547424679993,None,1068.6547210619992,None,1069.4046709249997,None,1069.6546148299985,None,1069.6546148299985,None,a,0,0.4846717679993162,1069.6546148299985,None,1070.1711927519991,None,1070.1711927519991,None,d,0.32814507,1070.1711927519991,None,1070.5208874799991,None,,,,,,,,,,,,,sub-10,08/08/2001,1: Male,21/10/2023,002,1: right,2023_Oct_21_1020,[FINAL]_fmri_multiplication,2021.2.3,59.97611583
block8.xlsx,191.6,7.5,5.7,7 x 7,56,18,7 x 7 = 56,large-sized_low-interference,large-sized,low-interference,7,IncorrectRESP,d,0,3,3,3,0,13,13,13,,,,,,,,,,,,,,,1072.9213920639995,None,1073.4199206739995,None,1075.4209109899984,None,1076.1713674569983,None,1076.4213635669985,None,1076.4213635669985,None,a,0,0.517925225,1076.4213635669985,None,1076.9711484869986,None,1076.9711484869986,None,d,0.3121592450006574,1076.9711484869986,None,1077.304203,None,,,,,,,,,,,,,sub-10,08/08/2001,1: Male,21/10/2023,002,1: right,2023_Oct_21_1020,[FINAL]_fmri_multiplication,2021.2.3,59.97611583
block8.xlsx,204.8,7.5,2.2,9 x 2,18,2,2 x 9 = 18,small-sized_low-interference,small-sized,low-interference,7,CorrectRESP,a,0,3,3,3,0,14,14,14,,,,,,,,,,,,,,,1083.0040447559986,None,1083.5034310469982,None,1085.504741,None,1086.2547396029986,None,1086.5047992629989,None,1086.5047992629989,None,d,0,0.48258403100044234,1086.5047992629989,None,1087.0065416859998,None,1087.0065416859998,None,d,0.18883328700030688,1087.0065416859998,None,1087.2209801479985,None,,,,,,,,,,,,,sub-10,08/08/2001,1: Male,21/10/2023,002,1: right,2023_Oct_21_1020,[FINAL]_fmri_multiplication,2021.2.3,59.97611583
block8.xlsx,214.5,7.5,5.2,8 x 3,21,12,3 x 8 = 21,small-sized_high-interference,small-sized,high-interference,13,IncorrectRESP,d,0,3,3,3,0,15,15,15,,,,,,,,,,,,,,,1089.4217381629987,None,1089.921644,None,1091.9212714779987,None,1092.6717546499985,None,1092.9207274839991,None,1092.9207274839991,None,a,0,0.48260749200017017,1092.9207274839991,None,1093.421324,None,1093.421324,None,d,0.3420811159994628,1093.421324,None,1093.7881761929984,None,,,,,,,,,,,,,sub-10,08/08/2001,1: Male,21/10/2023,002,1: right,2023_Oct_21_1020,[FINAL]_fmri_multiplication,2021.2.3,59.97611583
block8.xlsx,227.2,7.5,3.8,4 x 4,20,4,4 x 4 = 20,small-sized_low-interference,small-sized,low-interference,5,IncorrectRESP,d,0,3,3,3,0,16,16,16,,,,,,,,,,,,,,,1098.9879378079986,None,1099.4866602419988,None,1101.4875852469995,None,1102.237747486999,None,1102.4880182919987,None,1102.4880182919987,None,a,0,0.5153346339993732,1102.4880182919987,None,1103.0210038549994,None,1103.0210038549994,None,d,0.614376532,1103.0210038549994,None,1103.6541319919997,None,,,,,,,,,,,,,sub-10,08/08/2001,1: Male,21/10/2023,002,1: right,2023_Oct_21_1020,[FINAL]_fmri_multiplication,2021.2.3,59.97611583
block8.xlsx,238.5,7.5,2,4 x 6,28,10,6 x 4 = 28,small-sized_high-interference,small-sized,high-interference,12,IncorrectRESP,d,0,3,3,3,0,17,17,17,,,,,,,,,,,,,,,1107.4546885109994,None,1107.9548963689995,None,1109.9713485379998,None,1110.7213385839987,None,1110.9712568709983,None,1110.9712568709983,None,a,0,0.559988027,1110.9712568709983,None,1111.5542090489998,None,1111.5542090489998,None,d,0.5690642730005493,1111.5542090489998,None,1112.1548035309988,None,,,,,,,,,,,,,sub-10,08/08/2001,1: Male,21/10/2023,002,1: right,2023_Oct_21_1020,[FINAL]_fmri_multiplication,2021.2.3,59.97611583
block8.xlsx,248,7.5,4,6 x 5,30,14,5 x 6 = 30,large-sized_low-interference,large-sized,low-interference,6,CorrectRESP,a,0,3,3,3,0,18,18,18,,,,,,,,,,,,,,,1114.1545974779983,None,1114.6543521439999,None,1116.6546550799994,None,1117.404626833999,None,1117.6547646989984,None,1117.6547646989984,None,d,0,0.48451264499999525,1117.6547646989984,None,1118.1702992519986,None,1118.1702992519986,None,d,0.1690017720011383,1118.1702992519986,None,1118.3708473959996,None,,,,,,,,,,,,,sub-10,08/08/2001,1: Male,21/10/2023,002,1: right,2023_Oct_21_1020,[FINAL]_fmri_multiplication,2021.2.3,59.97611583
block8.xlsx,259.5,7.5,11.3,7 x 8,56,22,8 x 7 = 56,large-sized_high-interference,large-sized,high-interference,9,CorrectRESP,a,0,3,3,3,0,19,19,19,,,,,,,,,,,,,,,1122.371472769999,None,1122.874497,None,1124.8884510169992,None,1125.638041582999,None,1125.8880988949986,None,1125.8880988949986,None,d,0,0.48332362600012857,1125.8880988949986,None,1126.3880183349993,None,1126.3880183349993,None,d,0.19136489599986817,1126.3880183349993,None,1126.604706279999,None,,,,,,,,,,,,,sub-10,08/08/2001,1: Male,21/10/2023,002,1: right,2023_Oct_21_1020,[FINAL]_fmri_multiplication,2021.2.3,59.97611583
block8.xlsx,278.3,7.5,10.9,6 x 5,36,14,5 x 6 = 36,large-sized_low-interference,large-sized,low-interference,6,IncorrectRESP,d,0,3,3,3,0,20,20,20,,,,,,,,,,,,,,,1137.9046299739985,None,1138.4041599069988,None,1140.4044521869982,None,1141.1546361409983,None,1141.4043036819985,None,1141.4043036819985,None,a,0,0.6631080609986384,1141.4043036819985,None,1142.0873205209991,None,1142.0873205209991,None,d,0.5321217450000404,1142.0873205209991,None,1142.637528252999,None,,,,,,,,,,,,,sub-10,08/08/2001,1: Male,21/10/2023,002,1: right,2023_Oct_21_1020,[FINAL]_fmri_multiplication,2021.2.3,59.97611583
block8.xlsx,296.7,7.5,3.5,9 x 4,36,20,4 x 9 = 36,large-sized_high-interference,large-sized,high-interference,9,CorrectRESP,a,0,3,3,3,0,21,21,21,,,,,,,,,,,,,,,1153.5380556049986,None,1154.0378983459996,None,1156.0380734619994,None,1156.7881956939982,None,1157.0379981219994,None,1157.0379981219994,None,d,0,0.4773985299998458,1157.0379981219994,None,1157.537777,None,1157.537777,None,d,0.20152338600018993,1157.537777,None,1157.7716804559986,None,,,,,,,,,,,,,sub-10,08/08/2001,1: Male,21/10/2023,002,1: right,2023_Oct_21_1020,[FINAL]_fmri_multiplication,2021.2.3,59.97611583
block8.xlsx,307.7,7.5,2.9,4 x 4,16,4,4 x 4 = 16,small-sized_low-interference,small-sized,low-interference,5,CorrectRESP,a,0,3,3,3,0,22,22,22,,,,,,,,,,,,,,,1161.268622,None,1161.7847204419995,None,1163.7883336309987,None,1164.5385705909994,None,1164.7876588639992,None,1164.7876588639992,None,d,0,0.47967722399880586,1164.7876588639992,None,1165.2877654629992,None,1165.2877654629992,None,d,0.1795581120004499,1165.2877654629992,None,1165.4878465729998,None,,,,,,,,,,,,,sub-10,08/08/2001,1: Male,21/10/2023,002,1: right,2023_Oct_21_1020,[FINAL]_fmri_multiplication,2021.2.3,59.97611583
block8.xlsx,318.1,7.5,9.4,4 x 8,28,24,8 x 4 = 28,large-sized_high-interference,large-sized,high-interference,25,IncorrectRESP,d,0,3,3,3,0,23,23,23,,,,,,,,,,,,,,,1168.3882285769996,None,1168.8876511219987,None,1170.8880202539985,None,1171.6377988609984,None,1171.8878980649988,None,1171.8878980649988,None,a,0,0.5154808389997925,1171.8878980649988,None,1172.4210254729987,None,1172.4210254729987,None,d,0.3262254099990969,1172.4210254729987,None,1172.7713984249986,None,,,,,,,,,,,,,sub-10,08/08/2001,1: Male,21/10/2023,002,1: right,2023_Oct_21_1020,[FINAL]_fmri_multiplication,2021.2.3,59.97611583
block8.xlsx,,,,,,,,,,,,,,0,3,3,3,,,,,0,0,0,0,,,,,,,,,,,,,,,,,,,,,,,,,,,,,,,,,,,,,,1182.1717574559989,None,1182.1717574559989,None,,,,,,,,,sub-10,08/08/2001,1: Male,21/10/2023,002,1: right,2023_Oct_21_1020,[FINAL]_fmri_multiplication,2021.2.3,59.97611583
block8.xlsx,,,,,,,,,,,,,,0,3,3,3,,,,,1,0,1,0,,,,,,,,,,,,,,,,,,,,,,,,,,,,,,,,,,,,,,1183.1717838469995,1183.1717838469995,1183.1717838469995,1183.1717838469995,,,,,,,,,sub-10,08/08/2001,1: Male,21/10/2023,002,1: right,2023_Oct_21_1020,[FINAL]_fmri_multiplication,2021.2.3,59.97611583
block8.xlsx,,,,,,,,,,,,,,0,3,3,3,,,,,2,0,2,0,,,,,,,,,,,,,,,,,,,,,,,,,,,,,,,,,,,,,,1184.1715158969982,1184.1715158969982,1184.1715158969982,1184.1715158969982,,,,,,,,,sub-10,08/08/2001,1: Male,21/10/2023,002,1: right,2023_Oct_21_1020,[FINAL]_fmri_multiplication,2021.2.3,59.97611583
block8.xlsx,,,,,,,,,,,,,,0,3,3,3,,,,,3,0,3,0,,,,,,,,,,,,,,,,,,,,,,,,,,,,,,,,,,,,,,1185.171495,1185.171495,1185.171495,1185.171495,,,,,,,,,sub-10,08/08/2001,1: Male,21/10/2023,002,1: right,2023_Oct_21_1020,[FINAL]_fmri_multiplication,2021.2.3,59.97611583
block8.xlsx,,,,,,,,,,,,,,0,3,3,3,,,,,4,0,4,0,,,,,,,,,,,,,,,,,,,,,,,,,,,,,,,,,,,,,,1186.1725162139992,1186.1725162139992,1186.1725162139992,1186.1725162139992,,,,,,,,,sub-10,08/08/2001,1: Male,21/10/2023,002,1: right,2023_Oct_21_1020,[FINAL]_fmri_multiplication,2021.2.3,59.97611583
block8.xlsx,,,,,,,,,,,,,,0,3,3,3,,,,,5,0,5,0,,,,,,,,,,,,,,,,,,,,,,,,,,,,,,,,,,,,,,1187.1884796959985,None,1187.1884796959985,None,,,,,,,,,sub-10,08/08/2001,1: Male,21/10/2023,002,1: right,2023_Oct_21_1020,[FINAL]_fmri_multiplication,2021.2.3,59.97611583
block8.xlsx,,,,,,,,,,,,,,0,3,3,3,,,,,6,0,6,0,,,,,,,,,,,,,,,,,,,,,,,,,,,,,,,,,,,,,,1188.1883257639984,None,1188.1883257639984,None,,,,,,,,,sub-10,08/08/2001,1: Male,21/10/2023,002,1: right,2023_Oct_21_1020,[FINAL]_fmri_multiplication,2021.2.3,59.97611583
block8.xlsx,,,,,,,,,,,,,,0,3,3,3,,,,,7,0,7,0,,,,,,,,,,,,,,,,,,,,,,,,,,,,,,,,,,,,,,1189.1906027709992,None,1189.1906027709992,None,,,,,,,,,sub-10,08/08/2001,1: Male,21/10/2023,002,1: right,2023_Oct_21_1020,[FINAL]_fmri_multiplication,2021.2.3,59.97611583
block8.xlsx,,,,,,,,,,,,,,0,3,3,3,,,,,8,0,8,0,,,,,,,,,,,,,,,,,,,,,,,,,,,,,,,,,,,,,,1190.1889890119983,None,1190.1889890119983,None,,,,,,,,,sub-10,08/08/2001,1: Male,21/10/2023,002,1: right,2023_Oct_21_1020,[FINAL]_fmri_multiplication,2021.2.3,59.97611583
block8.xlsx,,,,,,,,,,,,,,0,3,3,3,,,,,9,0,9,0,,,,,,,,,,,,,,,,,,,,,,,,,,,,,,,,,,,,,,1191.18831,None,1191.18831,None,,,,,,,,,sub-10,08/08/2001,1: Male,21/10/2023,002,1: right,2023_Oct_21_1020,[FINAL]_fmri_multiplication,2021.2.3,59.97611583
block8.xlsx,,,,,,,,,,,,,,0,3,3,3,,,,,10,0,10,0,,,,,,,,,,,,,,,,,,,,,,,,,,,,,,,,,,,,,,1192.1882042569996,None,1192.1882042569996,None,,,,,,,,,sub-10,08/08/2001,1: Male,21/10/2023,002,1: right,2023_Oct_21_1020,[FINAL]_fmri_multiplication,2021.2.3,59.97611583
block8.xlsx,,,,,,,,,,,,,,0,3,3,3,,,,,11,0,11,0,,,,,,,,,,,,,,,,,,,,,,,,,,,,,,,,,,,,,,1193.1877794329994,None,1193.1877794329994,None,,,,,,,,,sub-10,08/08/2001,1: Male,21/10/2023,002,1: right,2023_Oct_21_1020,[FINAL]_fmri_multiplication,2021.2.3,59.97611583
block8.xlsx,,,,,,,,,,,,,,0,3,3,3,,,,,12,0,12,0,,,,,,,,,,,,,,,,,,,,,,,,,,,,,,,,,,,,,,1194.1888392559995,None,1194.1888392559995,None,,,,,,,,,sub-10,08/08/2001,1: Male,21/10/2023,002,1: right,2023_Oct_21_1020,[FINAL]_fmri_multiplication,2021.2.3,59.97611583
block8.xlsx,,,,,,,,,,,,,,0,3,3,3,,,,,13,0,13,0,,,,,,,,,,,,,,,,,,,,,,,,,,,,,,,,,,,,,,1195.188045,None,1195.188045,None,,,,,,,,,sub-10,08/08/2001,1: Male,21/10/2023,002,1: right,2023_Oct_21_1020,[FINAL]_fmri_multiplication,2021.2.3,59.97611583
block8.xlsx,,,,,,,,,,,,,,0,3,3,3,,,,,14,0,14,0,,,,,,,,,,,,,,,,,,,,,,,,,,,,,,,,,,,,,,1196.188272780999,None,1196.188272780999,None,,,,,,,,,sub-10,08/08/2001,1: Male,21/10/2023,002,1: right,2023_Oct_21_1020,[FINAL]_fmri_multiplication,2021.2.3,59.97611583
block8.xlsx,,,,,,,,,,,,,,0,3,3,3,,,,,15,0,15,0,,,,,,,,,,,,,,,,,,,,,,,,,,,,,,,,,,,,,,1197.1886943659993,None,1197.1886943659993,None,,,,,,,,,sub-10,08/08/2001,1: Male,21/10/2023,002,1: right,2023_Oct_21_1020,[FINAL]_fmri_multiplication,2021.2.3,59.97611583
block8.xlsx,,,,,,,,,,,,,,0,3,3,3,,,,,16,0,16,0,,,,,,,,,,,,,,,,,,,,,,,,,,,,,,,,,,,,,,1198.1870129279996,None,1198.1870129279996,None,,,,,,,,,sub-10,08/08/2001,1: Male,21/10/2023,002,1: right,2023_Oct_21_1020,[FINAL]_fmri_multiplication,2021.2.3,59.97611583
block8.xlsx,,,,,,,,,,,,,,0,3,3,3,,,,,17,0,17,0,,,,,,,,,,,,,,,,,,,,,,,,,,,,,,,,,,,,,,1199.1904758499986,None,1199.1904758499986,None,,,,,,,,,sub-10,08/08/2001,1: Male,21/10/2023,002,1: right,2023_Oct_21_1020,[FINAL]_fmri_multiplication,2021.2.3,59.97611583
block8.xlsx,,,,,,,,,,,,,,0,3,3,3,,,,,18,0,18,0,,,,,,,,,,,,,,,,,,,,,,,,,,,,,,,,,,,,,,1200.1877283079994,None,1200.1877283079994,None,,,,,,,,,sub-10,08/08/2001,1: Male,21/10/2023,002,1: right,2023_Oct_21_1020,[FINAL]_fmri_multiplication,2021.2.3,59.97611583
block8.xlsx,,,,,,,,,,,,,,0,3,3,3,,,,,19,0,19,0,,,,,,,,,,,,,,,,,,,,,,,,,,,,,,,,,,,,,,1201.1878573979993,None,1201.1878573979993,None,,,,,,,,,sub-10,08/08/2001,1: Male,21/10/2023,002,1: right,2023_Oct_21_1020,[FINAL]_fmri_multiplication,2021.2.3,59.97611583
block8.xlsx,,,,,,,,,,,,,,0,3,3,3,,,,,20,0,20,0,,,,,,,,,,,,,,,,,,,,,,,,,,,,,,,,,,,,,,1202.1888992899985,None,1202.1888992899985,None,,,,,,,,,sub-10,08/08/2001,1: Male,21/10/2023,002,1: right,2023_Oct_21_1020,[FINAL]_fmri_multiplication,2021.2.3,59.97611583
block8.xlsx,,,,,,,,,,,,,,0,3,3,3,,,,,21,0,21,0,,,,,,,,,,,,,,,,,,,,,,,,,,,,,,,,,,,,,,1203.1883933029985,None,1203.1883933029985,None,,,,,,,,,sub-10,08/08/2001,1: Male,21/10/2023,002,1: right,2023_Oct_21_1020,[FINAL]_fmri_multiplication,2021.2.3,59.97611583
block8.xlsx,,,,,,,,,,,,,,0,3,3,3,,,,,22,0,22,0,,,,,,,,,,,,,,,,,,,,,,,,,,,,,,,,,,,,,,1204.1873590639989,None,1204.1873590639989,None,,,,,,,,,sub-10,08/08/2001,1: Male,21/10/2023,002,1: right,2023_Oct_21_1020,[FINAL]_fmri_multiplication,2021.2.3,59.97611583
block8.xlsx,,,,,,,,,,,,,,0,3,3,3,,,,,23,0,23,0,,,,,,,,,,,,,,,,,,,,,,,,,,,,,,,,,,,,,,1205.1877342169992,None,1205.1877342169992,None,,,,,,,,,sub-10,08/08/2001,1: Male,21/10/2023,002,1: right,2023_Oct_21_1020,[FINAL]_fmri_multiplication,2021.2.3,59.97611583
block8.xlsx,,,,,,,,,,,,,,0,3,3,3,,,,,24,0,24,0,,,,,,,,,,,,,,,,,,,,,,,,,,,,,,,,,,,,,,1206.1875381269983,None,1206.1875381269983,None,,,,,,,,,sub-10,08/08/2001,1: Male,21/10/2023,002,1: right,2023_Oct_21_1020,[FINAL]_fmri_multiplication,2021.2.3,59.97611583
block8.xlsx,,,,,,,,,,,,,,0,3,3,3,,,,,25,0,25,0,,,,,,,,,,,,,,,,,,,,,,,,,,,,,,,,,,,,,,1207.188195585999,None,1207.188195585999,None,,,,,,,,,sub-10,08/08/2001,1: Male,21/10/2023,002,1: right,2023_Oct_21_1020,[FINAL]_fmri_multiplication,2021.2.3,59.97611583
block8.xlsx,,,,,,,,,,,,,,0,3,3,3,,,,,26,0,26,0,,,,,,,,,,,,,,,,,,,,,,,,,,,,,,,,,,,,,,1208.1886916019994,None,1208.1886916019994,None,,,,,,,,,sub-10,08/08/2001,1: Male,21/10/2023,002,1: right,2023_Oct_21_1020,[FINAL]_fmri_multiplication,2021.2.3,59.97611583
block8.xlsx,,,,,,,,,,,,,,0,3,3,3,,,,,27,0,27,0,,,,,,,,,,,,,,,,,,,,,,,,,,,,,,,,,,,,,,1209.1866607069987,None,1209.1866607069987,None,,,,,,,,,sub-10,08/08/2001,1: Male,21/10/2023,002,1: right,2023_Oct_21_1020,[FINAL]_fmri_multiplication,2021.2.3,59.97611583
block8.xlsx,,,,,,,,,,,,,,0,3,3,3,,,,,28,0,28,0,,,,,,,,,,,,,,,,,,,,,,,,,,,,,,,,,,,,,,1210.1877864669987,None,1210.1877864669987,None,,,,,,,,,sub-10,08/08/2001,1: Male,21/10/2023,002,1: right,2023_Oct_21_1020,[FINAL]_fmri_multiplication,2021.2.3,59.97611583
block8.xlsx,,,,,,,,,,,,,,0,3,3,3,,,,,29,0,29,0,,,,,,,,,,,,,,,,,,,,,,,,,,,,,,,,,,,,,,1211.1867090709984,None,1211.1867090709984,None,,,,,,,,,sub-10,08/08/2001,1: Male,21/10/2023,002,1: right,2023_Oct_21_1020,[FINAL]_fmri_multiplication,2021.2.3,59.97611583
block8.xlsx,,,,,,,,,,,,,,0,3,3,3,,,,,,,,,,,,,,,,,,,,,,,,,,,,,,,,,,,,,,,,,,,,,,,,,,,,,,,,,,sub-10,08/08/2001,1: Male,21/10/2023,002,1: right,2023_Oct_21_1020,[FINAL]_fmri_multiplication,2021.2.3,59.97611583
,,,,,,,,,,,,,,,,,,,,,,,,,,,,,,,,,,,,,,,,,,,,,,,,,,,,,,,,,,,,,,,,,,,1212.1880121389986,1214.1879925269986,1214.171402,None,y,446.54557598800056,1214.171402,None,sub-10,08/08/2001,1: Male,21/10/2023,002,1: right,2023_Oct_21_1020,[FINAL]_fmri_multiplication,2021.2.3,59.97611583