blocks_file,start,dur,rest,mult_problemB,mult_options,stim_trial,mult_stim,type,ProblemSize,InterferenceLH,InterferenceLevel,mult_type,corrRESP,blocks_set.thisRepN,blocks_set.thisTrialN,blocks_set.thisN,blocks_set.thisIndex,TRIALS.thisRepN,TRIALS.thisTrialN,TRIALS.thisN,TRIALS.thisIndex,timer_loop.thisRepN,timer_loop.thisTrialN,timer_loop.thisN,timer_loop.thisIndex,WAIT_TEXT.started,WAIT_TEXT.stopped,scan_start_trigger.keys,scan_start_trigger.rt,scan_start_trigger.started,scan_start_trigger.stopped,MAIN_SCREEN.started,MAIN_SCREEN.stopped,Block_Text.started,Block_Text.stopped,asterisk500ms.started,asterisk500ms.stopped,mult_question_text.started,mult_question_text.stopped,equal_text.started,equal_text.stopped,blank250_text.started,blank250_text.stopped,Mult_OPTION.started,Mult_OPTION.stopped,Mult_YN.started,Mult_YN.stopped,Mult_Resp.keys,Mult_Resp.corr,Mult_Resp.rt,Mult_Resp.started,Mult_Resp.stopped,Strategy_Q.started,Strategy_Q.stopped,Strategy_Option.started,Strategy_Option.stopped,Strategy_RESP.keys,Strategy_RESP.rt,Strategy_RESP.started,Strategy_RESP.stopped,jitters.started,jitters.stopped,resting_text.started,resting_text.stopped,countdown_timer.started,countdown_timer.stopped,participant,Date of birth (DD/MM/YEAR),gender,Testing Date (DD/MM/YEAR),session,handedness,date,expName,psychopyVersion,frameRate
,,,,,,,,,,,,,,,,,,,,,,,,,,49.73736720199986,None,s,31.932508176000056,49.73736720199986,None,,,,,,,,,,,,,,,,,,,,,,,,,,,,,,,,,,,,sub-07,06/10/2001,1: Male,21/09/2023,001,1: right,2023_Sep_21_1802,[FINAL]_fmri_multiplication,2021.2.3,60.03561168403355
block1.xlsx,10,7.5,15.3,6 x 6,36,13,6 x 6 = 36,large-sized_low-interference,large-sized,low-interference,4,CorrectRESP,a,0,0,0,0,0,0,0,0,,,,,,,,,,,81.69292224,None,86.71775196899989,None,96.72193907799988,None,97.19898009200006,None,99.19743369,None,99.94745303,None,100.21147991399994,None,100.21147991399994,None,d,0,0.7683507120000286,100.21147991399994,None,100.99771266799985,None,100.99771266799985,None,d,0.8061196459998428,100.99771266799985,None,101.8305358319999,None,,,,,sub-07,06/10/2001,1: Male,21/09/2023,001,1: right,2023_Sep_21_1802,[FINAL]_fmri_multiplication,2021.2.3,60.03561168403355
block1.xlsx,32.8,7.5,2.5,2 x 9,18,2,2 x 9 = 18,small-sized_low-interference,small-sized,low-interference,7,CorrectRESP,a,0,0,0,0,0,1,1,1,,,,,,,,,,,,,,,117.13112248100015,None,117.63386280299983,None,119.64788336999982,None,120.3978647959998,None,120.6499475820001,None,120.6499475820001,None,d,0,0.8657495079996806,120.6499475820001,None,121.54779769200013,None,121.54779769200013,None,d,0.2959752579999986,121.54779769200013,None,121.86411317600005,None,,,,,sub-07,06/10/2001,1: Male,21/09/2023,001,1: right,2023_Sep_21_1802,[FINAL]_fmri_multiplication,2021.2.3,60.03561168403355
block1.xlsx,42.8,7.5,3.8,8 x 4,28,24,8 x 4 = 28,large-sized_high-interference,large-sized,high-interference,25,IncorrectRESP,d,0,0,0,0,0,2,2,2,,,,,,,,,,,,,,,124.36451519799994,None,124.86602913199977,None,126.88080674599996,None,127.63073781000003,None,127.88048931699996,None,127.88048931699996,None,a,0,1.1792555739998534,127.88048931699996,None,129.08044814200002,None,129.08044814200002,None,a,0.29946749900000214,129.08044814200002,None,129.39701864200015,None,,,,,sub-07,06/10/2001,1: Male,21/09/2023,001,1: right,2023_Sep_21_1802,[FINAL]_fmri_multiplication,2021.2.3,60.03561168403355
block1.xlsx,54.1,7.5,5.5,7 x 2,14,1,7 x 2 = 14,small-sized_low-interference,small-sized,low-interference,4,CorrectRESP,a,0,0,0,0,0,3,3,3,,,,,,,,,,,,,,,133.19740447699996,None,133.69891242199992,None,135.7141555,None,136.46410568400006,None,136.7140119569999,None,136.7140119569999,None,d,0,1.1218354700004056,136.7140119569999,None,137.86411214100008,None,137.86411214100008,None,d,0.7317367219998232,137.86411214100008,None,138.61405306100005,None,,,,,sub-07,06/10/2001,1: Male,21/09/2023,001,1: right,2023_Sep_21_1802,[FINAL]_fmri_multiplication,2021.2.3,60.03561168403355
block1.xlsx,67.1,7.5,3,7 x 7,56,18,7 x 7 = 56,large-sized_low-interference,large-sized,low-interference,7,IncorrectRESP,d,0,0,0,0,0,4,4,4,,,,,,,,,,,,,,,144.11403139799995,None,144.61351681399992,None,146.61418074999983,None,147.36420979600007,None,147.6152232559998,None,147.6152232559998,None,a,0,1.0126850810001997,147.6152232559998,None,148.64719040299997,None,148.64719040299997,None,d,0.4685405019999962,148.64719040299997,None,149.1475317,None,,,,,sub-07,06/10/2001,1: Male,21/09/2023,001,1: right,2023_Sep_21_1802,[FINAL]_fmri_multiplication,2021.2.3,60.03561168403355
block1.xlsx,77.6,7.5,2.1,3 x 4,12,9,3 x 4 = 12,small-sized_high-interference,small-sized,high-interference,10,CorrectRESP,a,0,0,0,0,0,5,5,5,,,,,,,,,,,,,,,152.14473887999975,None,152.64974899599974,None,154.66450480499998,None,155.41448001900017,None,155.6648854,None,155.6648854,None,d,0,0.9149268010000924,155.6648854,None,156.59761752199984,None,156.59761752199984,None,d,0.4941537179997795,156.59761752199984,None,157.11408694700003,None,,,,,sub-07,06/10/2001,1: Male,21/09/2023,001,1: right,2023_Sep_21_1802,[FINAL]_fmri_multiplication,2021.2.3,60.03561168403355
block1.xlsx,87.2,7.5,5,8 x 7,63,22,8 x 7 = 63,large-sized_high-interference,large-sized,high-interference,9,IncorrectRESP,d,0,0,0,0,0,6,6,6,,,,,,,,,,,,,,,159.21423282299975,None,159.71493080899972,None,161.71417737299998,None,162.4642146,None,162.71365873900004,None,162.71365873900004,None,a,0,1.1781235660000675,162.71365873900004,None,163.91360265999992,None,163.91360265999992,None,d,0.3701112670000839,163.91360265999992,None,164.31418081999982,None,,,,,sub-07,06/10/2001,1: Male,21/09/2023,001,1: right,2023_Sep_21_1802,[FINAL]_fmri_multiplication,2021.2.3,60.03561168403355
block1.xlsx,99.7,7.5,3,5 x 5,25,3,5 x 5 = 25,small-sized_low-interference,small-sized,low-interference,3,CorrectRESP,a,0,0,0,0,0,7,7,7,,,,,,,,,,,,,,,169.31407991800006,None,169.81431302600004,None,171.81385846500007,None,172.56406270800017,None,172.8149498580001,None,172.8149498580001,None,d,0,0.6447601520003445,172.8149498580001,None,173.4803286629999,None,173.4803286629999,None,d,0.3554847229997904,173.4803286629999,None,173.8641244129999,None,,,,,sub-07,06/10/2001,1: Male,21/09/2023,001,1: right,2023_Sep_21_1802,[FINAL]_fmri_multiplication,2021.2.3,60.03561168403355
block1.xlsx,110.2,7.5,6.5,6 x 4,28,10,6 x 4 = 28,small-sized_high-interference,small-sized,high-interference,12,IncorrectRESP,d,0,0,0,0,0,8,8,8,,,,,,,,,,,,,,,176.86364679100006,None,177.36386184699995,None,179.36409393999975,None,180.1139592049999,None,180.36416807499972,None,180.36416807499972,None,a,0,1.183549005000259,180.36416807499972,None,181.58061903899988,None,181.58061903899988,None,d,0.33512079399997674,181.58061903899988,None,181.9472200360001,None,,,,,sub-07,06/10/2001,1: Male,21/09/2023,001,1: right,2023_Sep_21_1802,[FINAL]_fmri_multiplication,2021.2.3,60.03561168403355
block1.xlsx,124.2,7.5,5.7,5 x 8,40,21,5 x 8 = 40,large-sized_high-interference,large-sized,high-interference,9,CorrectRESP,a,0,0,0,0,0,9,9,9,,,,,,,,,,,,,,,188.4442792609998,None,188.93961331399987,None,190.94767086399997,None,191.69788431899997,None,191.94993057600004,None,191.94993057600004,None,d,0,0.6778970210002626,191.94993057600004,None,192.64727057599976,None,192.64727057599976,None,d,0.3885609150001983,192.64727057599976,None,193.0645349,None,,,,,sub-07,06/10/2001,1: Male,21/09/2023,001,1: right,2023_Sep_21_1802,[FINAL]_fmri_multiplication,2021.2.3,60.03561168403355
block1.xlsx,137.4,7.5,11.2,7 x 3,24,11,7 x 3 = 24,small-sized_high-interference,small-sized,high-interference,13,IncorrectRESP,d,0,0,0,0,0,10,10,10,,,,,,,,,,,,,,,198.7641156599998,None,199.26390176199993,None,201.26427481500014,None,202.0142703450001,None,202.26412279399983,None,202.26412279399983,None,a,0,0.8997261029999208,202.26412279399983,None,203.18067499300014,None,203.18067499300014,None,d,0.43112044999998034,203.18067499300014,None,203.63034964000008,None,,,,,sub-07,06/10/2001,1: Male,21/09/2023,001,1: right,2023_Sep_21_1802,[FINAL]_fmri_multiplication,2021.2.3,60.03561168403355
block1.xlsx,156.1,7.5,6.9,5 x 6,30,14,5 x 6 = 30,large-sized_low-interference,large-sized,low-interference,6,CorrectRESP,a,0,0,0,0,0,11,11,11,,,,,,,,,,,,,,,214.8305011,None,215.3305594039998,None,217.33073980300014,None,218.08093038700008,None,218.33108102899996,None,218.33108102899996,None,d,0,0.7607329060001575,218.33108102899996,None,219.11378442099976,None,219.11378442099976,None,d,0.3619590779999271,219.11378442099976,None,219.49712925699987,None,,,,,sub-07,06/10/2001,1: Male,21/09/2023,001,1: right,2023_Sep_21_1802,[FINAL]_fmri_multiplication,2021.2.3,60.03561168403355
block1.xlsx,170.5,7.5,2.4,6 x 2,10,6,6 x 2 = 10,small-sized_low-interference,small-sized,low-interference,3,IncorrectRESP,d,0,0,0,0,0,12,12,12,,,,,,,,,,,,,,,226.3975212350001,None,226.89790674300002,None,228.8978374180001,None,229.64768162400014,None,229.89851550799995,None,229.89851550799995,None,a,0,1.009266210000078,229.89851550799995,None,230.93042719599998,None,230.93042719599998,None,d,0.5053973979997863,230.93042719599998,None,231.4642196,None,,,,,sub-07,06/10/2001,1: Male,21/09/2023,001,1: right,2023_Sep_21_1802,[FINAL]_fmri_multiplication,2021.2.3,60.03561168403355
block1.xlsx,180.4,7.5,4.6,4 x 9,36,20,4 x 9 = 36,large-sized_high-interference,large-sized,high-interference,9,CorrectRESP,a,0,0,0,0,0,13,13,13,,,,,,,,,,,,,,,233.86409319699987,None,234.36405683199973,None,236.36412611700007,None,237.1143475519998,None,237.36408292199985,None,237.36408292199985,None,d,0,1.0397611770004005,237.36408292199985,None,238.43032302599977,None,238.43032302599977,None,d,0.293413621,238.43032302599977,None,238.7470167209999,None,,,,,sub-07,06/10/2001,1: Male,21/09/2023,001,1: right,2023_Sep_21_1802,[FINAL]_fmri_multiplication,2021.2.3,60.03561168403355
block1.xlsx,192.5,7.5,9,7 x 5,40,17,7 x 5 = 40,large-sized_low-interference,large-sized,low-interference,7,IncorrectRESP,d,0,0,0,0,0,14,14,14,,,,,,,,,,,,,,,243.34742749099996,None,243.84711462099995,None,245.84768737600007,None,246.59744369100008,None,246.84755759900008,None,246.84755759900008,None,a,0,0.8281400420000864,246.84755759900008,None,247.69704437099972,None,247.69704437099972,None,d,0.3467210809999415,247.69704437099972,None,248.0636404359998,None,,,,,sub-07,06/10/2001,1: Male,21/09/2023,001,1: right,2023_Sep_21_1802,[FINAL]_fmri_multiplication,2021.2.3,60.03561168403355
block1.xlsx,209,7.5,5.8,6 x 3,18,7,6 x 3 = 18,small-sized_high-interference,small-sized,high-interference,8,CorrectRESP,a,0,0,0,0,0,15,15,15,,,,,,,,,,,,,,,257.0644820849998,None,257.5647193,None,259.5645116,None,260.3145342449998,None,260.5644294,None,260.5644294,None,a,1,1.2553827349997846,260.5644294,None,261.84785085700014,None,261.84785085700014,None,d,0.3239149539999744,261.84785085700014,None,262.19733605700003,None,,,,,sub-07,06/10/2001,1: Male,21/09/2023,001,1: right,2023_Sep_21_1802,[FINAL]_fmri_multiplication,2021.2.3,60.03561168403355
block1.xlsx,222.3,7.5,2.9,7 x 6,48,23,7 x 6 = 48,large-sized_high-interference,large-sized,high-interference,22,IncorrectRESP,d,0,0,0,0,0,16,16,16,,,,,,,,,,,,,,,267.99745232199984,None,268.4973875380001,None,270.49759693099986,None,271.2474967959997,None,271.4974916279998,None,271.4974916279998,None,a,0,1.0182326409999405,271.4974916279998,None,272.5479566,None,272.5479566,None,d,0.575741431,272.5479566,None,273.14702214399995,None,,,,,sub-07,06/10/2001,1: Male,21/09/2023,001,1: right,2023_Sep_21_1802,[FINAL]_fmri_multiplication,2021.2.3,60.03561168403355
block1.xlsx,232.7,7.5,6.9,9 x 5,45,15,9 x 5 = 45,large-sized_low-interference,large-sized,low-interference,6,CorrectRESP,a,0,0,0,0,0,17,17,17,,,,,,,,,,,,,,,276.0475210479999,None,276.54744474400013,None,278.5474917759998,None,279.2973935509999,None,279.5475300379999,None,279.5475300379999,None,d,0,1.192223240000203,279.5475300379999,None,280.76364495100006,None,280.76364495100006,None,d,0.39215188799971656,280.76364495100006,None,281.1805854,None,,,,,sub-07,06/10/2001,1: Male,21/09/2023,001,1: right,2023_Sep_21_1802,[FINAL]_fmri_multiplication,2021.2.3,60.03561168403355
block1.xlsx,247.1,7.5,2.5,4 x 4,20,4,4 x 4 = 20,small-sized_low-interference,small-sized,low-interference,5,IncorrectRESP,d,0,0,0,0,0,18,18,18,,,,,,,,,,,,,,,288.0809094450001,None,288.58073365400014,None,290.5809649319999,None,291.3284065990001,None,291.5820279700001,None,291.5820279700001,None,a,0,0.8696897979998539,291.5820279700001,None,292.4813028620001,None,292.4813028620001,None,d,0.47451684599991495,292.4813028620001,None,292.9808839739999,None,,,,,sub-07,06/10/2001,1: Male,21/09/2023,001,1: right,2023_Sep_21_1802,[FINAL]_fmri_multiplication,2021.2.3,60.03561168403355
block1.xlsx,257.1,7.5,3.7,9 x 3,27,19,9 x 3 = 27,large-sized_high-interference,large-sized,high-interference,9,CorrectRESP,a,0,0,0,0,0,19,19,19,,,,,,,,,,,,,,,295.4811742900001,None,295.98110768200013,None,297.98111151600006,None,298.73131535599987,None,298.9834560539998,None,298.9834560539998,None,d,0,0.5482515670000794,298.9834560539998,None,299.56419783399997,None,299.56419783399997,None,d,0.3675116990002607,299.56419783399997,None,299.9644684159998,None,,,,,sub-07,06/10/2001,1: Male,21/09/2023,001,1: right,2023_Sep_21_1802,[FINAL]_fmri_multiplication,2021.2.3,60.03561168403355
block1.xlsx,268.3,7.5,3.5,4 x 5,20,8,4 x 5 = 20,small-sized_high-interference,small-sized,high-interference,8,CorrectRESP,a,0,0,0,0,0,20,20,20,,,,,,,,,,,,,,,303.66426400499995,None,304.1636872439999,None,306.16433677099985,None,306.91423382799985,None,307.16429976100017,None,307.16429976100017,None,d,0,0.7353530130003492,307.16429976100017,None,307.9307593929998,None,307.9307593929998,None,d,0.2890708680001808,307.9307593929998,None,308.2474347,None,,,,,sub-07,06/10/2001,1: Male,21/09/2023,001,1: right,2023_Sep_21_1802,[FINAL]_fmri_multiplication,2021.2.3,60.03561168403355
block1.xlsx,279.3,7.5,11.6,9 x 9,72,16,9 x 9 = 72,large-sized_low-interference,large-sized,low-interference,6,IncorrectRESP,d,0,0,0,0,0,21,21,21,,,,,,,,,,,,,,,311.7472881399999,None,312.2473491,None,314.2474153379999,None,314.9973495700001,None,315.2474767839999,None,315.2474767839999,None,a,0,0.7323531029996957,315.2474767839999,None,315.9971729879999,None,315.9971729879999,None,d,0.34254941900007907,315.9971729879999,None,316.36403559200016,None,,,,,sub-07,06/10/2001,1: Male,21/09/2023,001,1: right,2023_Sep_21_1802,[FINAL]_fmri_multiplication,2021.2.3,60.03561168403355
block1.xlsx,298.4,7.5,12.8,3 x 8,21,12,3 x 8 = 21,small-sized_high-interference,small-sized,high-interference,13,IncorrectRESP,d,0,0,0,0,0,22,22,22,,,,,,,,,,,,,,,327.96141569099973,None,328.4558550030001,None,330.46451046799984,None,331.2145008560001,None,331.4632993109999,None,331.4632993109999,None,a,0,1.1644956139998612,331.4632993109999,None,332.64719905799984,None,332.64719905799984,None,d,0.4205170260001978,332.64719905799984,None,333.09781896000004,None,,,,,sub-07,06/10/2001,1: Male,21/09/2023,001,1: right,2023_Sep_21_1802,[FINAL]_fmri_multiplication,2021.2.3,60.03561168403355
block1.xlsx,318.7,7.5,8.8,8 x 2,18,5,8 x 2 = 18,small-sized_low-interference,small-sized,low-interference,7,IncorrectRESP,d,0,0,0,0,0,23,23,23,,,,,,,,,,,,,,,345.89758419500004,None,346.39870104700003,None,348.4140475549998,None,349.16410380499974,None,349.4139982,None,349.4139982,None,a,0,1.3577880190000542,349.4139982,None,350.7971027909998,None,350.7971027909998,None,d,0.30261246800000663,350.7971027909998,None,351.13061951400005,None,,,,,sub-07,06/10/2001,1: Male,21/09/2023,001,1: right,2023_Sep_21_1802,[FINAL]_fmri_multiplication,2021.2.3,60.03561168403355
block1.xlsx,,,,,,,,,,,,,,0,0,0,0,,,,,0,0,0,0,,,,,,,,,,,,,,,,,,,,,,,,,,,,,,,,,,,,,,359.9332543,None,359.9332543,None,sub-07,06/10/2001,1: Male,21/09/2023,001,1: right,2023_Sep_21_1802,[FINAL]_fmri_multiplication,2021.2.3,60.03561168403355
block1.xlsx,,,,,,,,,,,,,,0,0,0,0,,,,,1,0,1,0,,,,,,,,,,,,,,,,,,,,,,,,,,,,,,,,,,,,,,360.950389,None,360.950389,None,sub-07,06/10/2001,1: Male,21/09/2023,001,1: right,2023_Sep_21_1802,[FINAL]_fmri_multiplication,2021.2.3,60.03561168403355
block1.xlsx,,,,,,,,,,,,,,0,0,0,0,,,,,2,0,2,0,,,,,,,,,,,,,,,,,,,,,,,,,,,,,,,,,,,,,,361.9445408299998,None,361.9445408299998,None,sub-07,06/10/2001,1: Male,21/09/2023,001,1: right,2023_Sep_21_1802,[FINAL]_fmri_multiplication,2021.2.3,60.03561168403355
block1.xlsx,,,,,,,,,,,,,,0,0,0,0,,,,,3,0,3,0,,,,,,,,,,,,,,,,,,,,,,,,,,,,,,,,,,,,,,362.94943534000004,None,362.94943534000004,None,sub-07,06/10/2001,1: Male,21/09/2023,001,1: right,2023_Sep_21_1802,[FINAL]_fmri_multiplication,2021.2.3,60.03561168403355
block1.xlsx,,,,,,,,,,,,,,0,0,0,0,,,,,4,0,4,0,,,,,,,,,,,,,,,,,,,,,,,,,,,,,,,,,,,,,,363.94974935499977,None,363.94974935499977,None,sub-07,06/10/2001,1: Male,21/09/2023,001,1: right,2023_Sep_21_1802,[FINAL]_fmri_multiplication,2021.2.3,60.03561168403355
block1.xlsx,,,,,,,,,,,,,,0,0,0,0,,,,,5,0,5,0,,,,,,,,,,,,,,,,,,,,,,,,,,,,,,,,,,,,,,364.96206657799985,None,364.96206657799985,None,sub-07,06/10/2001,1: Male,21/09/2023,001,1: right,2023_Sep_21_1802,[FINAL]_fmri_multiplication,2021.2.3,60.03561168403355
block1.xlsx,,,,,,,,,,,,,,0,0,0,0,,,,,6,0,6,0,,,,,,,,,,,,,,,,,,,,,,,,,,,,,,,,,,,,,,365.9495330999998,None,365.9495330999998,None,sub-07,06/10/2001,1: Male,21/09/2023,001,1: right,2023_Sep_21_1802,[FINAL]_fmri_multiplication,2021.2.3,60.03561168403355
block1.xlsx,,,,,,,,,,,,,,0,0,0,0,,,,,7,0,7,0,,,,,,,,,,,,,,,,,,,,,,,,,,,,,,,,,,,,,,366.9492825399998,None,366.9492825399998,None,sub-07,06/10/2001,1: Male,21/09/2023,001,1: right,2023_Sep_21_1802,[FINAL]_fmri_multiplication,2021.2.3,60.03561168403355
block1.xlsx,,,,,,,,,,,,,,0,0,0,0,,,,,8,0,8,0,,,,,,,,,,,,,,,,,,,,,,,,,,,,,,,,,,,,,,367.94888769599993,None,367.94888769599993,None,sub-07,06/10/2001,1: Male,21/09/2023,001,1: right,2023_Sep_21_1802,[FINAL]_fmri_multiplication,2021.2.3,60.03561168403355
block1.xlsx,,,,,,,,,,,,,,0,0,0,0,,,,,9,0,9,0,,,,,,,,,,,,,,,,,,,,,,,,,,,,,,,,,,,,,,368.9497303,None,368.9497303,None,sub-07,06/10/2001,1: Male,21/09/2023,001,1: right,2023_Sep_21_1802,[FINAL]_fmri_multiplication,2021.2.3,60.03561168403355
block1.xlsx,,,,,,,,,,,,,,0,0,0,0,,,,,10,0,10,0,,,,,,,,,,,,,,,,,,,,,,,,,,,,,,,,,,,,,,369.9493180129998,None,369.9493180129998,None,sub-07,06/10/2001,1: Male,21/09/2023,001,1: right,2023_Sep_21_1802,[FINAL]_fmri_multiplication,2021.2.3,60.03561168403355
block1.xlsx,,,,,,,,,,,,,,0,0,0,0,,,,,11,0,11,0,,,,,,,,,,,,,,,,,,,,,,,,,,,,,,,,,,,,,,370.94723134900005,None,370.94723134900005,None,sub-07,06/10/2001,1: Male,21/09/2023,001,1: right,2023_Sep_21_1802,[FINAL]_fmri_multiplication,2021.2.3,60.03561168403355
block1.xlsx,,,,,,,,,,,,,,0,0,0,0,,,,,12,0,12,0,,,,,,,,,,,,,,,,,,,,,,,,,,,,,,,,,,,,,,371.94735368400006,None,371.94735368400006,None,sub-07,06/10/2001,1: Male,21/09/2023,001,1: right,2023_Sep_21_1802,[FINAL]_fmri_multiplication,2021.2.3,60.03561168403355
block1.xlsx,,,,,,,,,,,,,,0,0,0,0,,,,,13,0,13,0,,,,,,,,,,,,,,,,,,,,,,,,,,,,,,,,,,,,,,372.94785826299994,None,372.94785826299994,None,sub-07,06/10/2001,1: Male,21/09/2023,001,1: right,2023_Sep_21_1802,[FINAL]_fmri_multiplication,2021.2.3,60.03561168403355
block1.xlsx,,,,,,,,,,,,,,0,0,0,0,,,,,14,0,14,0,,,,,,,,,,,,,,,,,,,,,,,,,,,,,,,,,,,,,,373.9478501,None,373.9478501,None,sub-07,06/10/2001,1: Male,21/09/2023,001,1: right,2023_Sep_21_1802,[FINAL]_fmri_multiplication,2021.2.3,60.03561168403355
block1.xlsx,,,,,,,,,,,,,,0,0,0,0,,,,,15,0,15,0,,,,,,,,,,,,,,,,,,,,,,,,,,,,,,,,,,,,,,374.9479110550001,None,374.9479110550001,None,sub-07,06/10/2001,1: Male,21/09/2023,001,1: right,2023_Sep_21_1802,[FINAL]_fmri_multiplication,2021.2.3,60.03561168403355
block1.xlsx,,,,,,,,,,,,,,0,0,0,0,,,,,16,0,16,0,,,,,,,,,,,,,,,,,,,,,,,,,,,,,,,,,,,,,,375.9476136640001,None,375.9476136640001,None,sub-07,06/10/2001,1: Male,21/09/2023,001,1: right,2023_Sep_21_1802,[FINAL]_fmri_multiplication,2021.2.3,60.03561168403355
block1.xlsx,,,,,,,,,,,,,,0,0,0,0,,,,,17,0,17,0,,,,,,,,,,,,,,,,,,,,,,,,,,,,,,,,,,,,,,376.9473119,None,376.9473119,None,sub-07,06/10/2001,1: Male,21/09/2023,001,1: right,2023_Sep_21_1802,[FINAL]_fmri_multiplication,2021.2.3,60.03561168403355
block1.xlsx,,,,,,,,,,,,,,0,0,0,0,,,,,18,0,18,0,,,,,,,,,,,,,,,,,,,,,,,,,,,,,,,,,,,,,,377.94614823899974,None,377.94614823899974,None,sub-07,06/10/2001,1: Male,21/09/2023,001,1: right,2023_Sep_21_1802,[FINAL]_fmri_multiplication,2021.2.3,60.03561168403355
block1.xlsx,,,,,,,,,,,,,,0,0,0,0,,,,,19,0,19,0,,,,,,,,,,,,,,,,,,,,,,,,,,,,,,,,,,,,,,378.9480322559998,None,378.9480322559998,None,sub-07,06/10/2001,1: Male,21/09/2023,001,1: right,2023_Sep_21_1802,[FINAL]_fmri_multiplication,2021.2.3,60.03561168403355
block1.xlsx,,,,,,,,,,,,,,0,0,0,0,,,,,20,0,20,0,,,,,,,,,,,,,,,,,,,,,,,,,,,,,,,,,,,,,,379.94719159199985,None,379.94719159199985,None,sub-07,06/10/2001,1: Male,21/09/2023,001,1: right,2023_Sep_21_1802,[FINAL]_fmri_multiplication,2021.2.3,60.03561168403355
block1.xlsx,,,,,,,,,,,,,,0,0,0,0,,,,,21,0,21,0,,,,,,,,,,,,,,,,,,,,,,,,,,,,,,,,,,,,,,380.9469018320001,None,380.9469018320001,None,sub-07,06/10/2001,1: Male,21/09/2023,001,1: right,2023_Sep_21_1802,[FINAL]_fmri_multiplication,2021.2.3,60.03561168403355
block1.xlsx,,,,,,,,,,,,,,0,0,0,0,,,,,22,0,22,0,,,,,,,,,,,,,,,,,,,,,,,,,,,,,,,,,,,,,,381.94748132799987,None,381.94748132799987,None,sub-07,06/10/2001,1: Male,21/09/2023,001,1: right,2023_Sep_21_1802,[FINAL]_fmri_multiplication,2021.2.3,60.03561168403355
block1.xlsx,,,,,,,,,,,,,,0,0,0,0,,,,,23,0,23,0,,,,,,,,,,,,,,,,,,,,,,,,,,,,,,,,,,,,,,382.94716238399997,None,382.94716238399997,None,sub-07,06/10/2001,1: Male,21/09/2023,001,1: right,2023_Sep_21_1802,[FINAL]_fmri_multiplication,2021.2.3,60.03561168403355
block1.xlsx,,,,,,,,,,,,,,0,0,0,0,,,,,24,0,24,0,,,,,,,,,,,,,,,,,,,,,,,,,,,,,,,,,,,,,,383.94750486099974,None,383.94750486099974,None,sub-07,06/10/2001,1: Male,21/09/2023,001,1: right,2023_Sep_21_1802,[FINAL]_fmri_multiplication,2021.2.3,60.03561168403355
block1.xlsx,,,,,,,,,,,,,,0,0,0,0,,,,,25,0,25,0,,,,,,,,,,,,,,,,,,,,,,,,,,,,,,,,,,,,,,384.94755790599993,None,384.94755790599993,None,sub-07,06/10/2001,1: Male,21/09/2023,001,1: right,2023_Sep_21_1802,[FINAL]_fmri_multiplication,2021.2.3,60.03561168403355
block1.xlsx,,,,,,,,,,,,,,0,0,0,0,,,,,26,0,26,0,,,,,,,,,,,,,,,,,,,,,,,,,,,,,,,,,,,,,,385.94728395799984,None,385.94728395799984,None,sub-07,06/10/2001,1: Male,21/09/2023,001,1: right,2023_Sep_21_1802,[FINAL]_fmri_multiplication,2021.2.3,60.03561168403355
block1.xlsx,,,,,,,,,,,,,,0,0,0,0,,,,,27,0,27,0,,,,,,,,,,,,,,,,,,,,,,,,,,,,,,,,,,,,,,386.9474757090002,None,386.9474757090002,None,sub-07,06/10/2001,1: Male,21/09/2023,001,1: right,2023_Sep_21_1802,[FINAL]_fmri_multiplication,2021.2.3,60.03561168403355
block1.xlsx,,,,,,,,,,,,,,0,0,0,0,,,,,28,0,28,0,,,,,,,,,,,,,,,,,,,,,,,,,,,,,,,,,,,,,,387.94663360100003,None,387.94663360100003,None,sub-07,06/10/2001,1: Male,21/09/2023,001,1: right,2023_Sep_21_1802,[FINAL]_fmri_multiplication,2021.2.3,60.03561168403355
block1.xlsx,,,,,,,,,,,,,,0,0,0,0,,,,,29,0,29,0,,,,,,,,,,,,,,,,,,,,,,,,,,,,,,,,,,,,,,388.94659055700004,None,388.94659055700004,None,sub-07,06/10/2001,1: Male,21/09/2023,001,1: right,2023_Sep_21_1802,[FINAL]_fmri_multiplication,2021.2.3,60.03561168403355
block1.xlsx,,,,,,,,,,,,,,0,0,0,0,,,,,,,,,,,,,,,,,,,,,,,,,,,,,,,,,,,,,,,,,,,,,,,,,,sub-07,06/10/2001,1: Male,21/09/2023,001,1: right,2023_Sep_21_1802,[FINAL]_fmri_multiplication,2021.2.3,60.03561168403355
block2.xlsx,10,7.5,3.4,3 x 4,15,9,3 x 4 = 15,small-sized_high-interference,small-sized,high-interference,10,IncorrectRESP,d,0,1,1,1,0,0,0,0,,,,,,,,,,,,,389.94857341299985,None,399.97116116000007,None,400.4479389160001,None,402.44795020599986,None,403.1976146259999,None,403.4488325719999,None,403.4488325719999,None,a,0,1.2268981100000929,403.4488325719999,None,404.69736584300017,None,404.69736584300017,None,d,0.4423441660001117,404.69736584300017,None,405.1638699,None,,,,,sub-07,06/10/2001,1: Male,21/09/2023,001,1: right,2023_Sep_21_1802,[FINAL]_fmri_multiplication,2021.2.3,60.03561168403355
block2.xlsx,20.9,7.5,7,9 x 5,40,15,9 x 5 = 40,large-sized_low-interference,large-sized,low-interference,6,IncorrectRESP,d,0,1,1,1,0,1,1,1,,,,,,,,,,,,,,,408.56427023100014,None,409.0636200260001,None,411.06251765199977,None,411.81426445499983,None,412.0641449149998,None,412.0641449149998,None,a,0,0.9636830340000415,412.0641449149998,None,413.04675409499987,None,413.04675409499987,None,d,0.34108083599994643,413.04675409499987,None,413.4138609030001,None,,,,,sub-07,06/10/2001,1: Male,21/09/2023,001,1: right,2023_Sep_21_1802,[FINAL]_fmri_multiplication,2021.2.3,60.03561168403355
block2.xlsx,35.4,7.5,6.6,6 x 4,24,10,6 x 4 = 24,small-sized_high-interference,small-sized,high-interference,12,CorrectRESP,a,0,1,1,1,0,2,2,2,,,,,,,,,,,,,,,420.4138190089998,None,420.9137670219998,None,422.91366135199996,None,423.66414876199997,None,423.9147492520001,None,423.9147492520001,None,d,0,0.6730722520001109,423.9147492520001,None,424.61348817499993,None,424.61348817499993,None,d,0.27023108999992473,424.61348817499993,None,424.9137038519998,None,,,,,sub-07,06/10/2001,1: Male,21/09/2023,001,1: right,2023_Sep_21_1802,[FINAL]_fmri_multiplication,2021.2.3,60.03561168403355
block2.xlsx,49.5,7.5,12,7 x 6,42,23,7 x 6 = 42,large-sized_high-interference,large-sized,high-interference,22,CorrectRESP,a,0,1,1,1,0,3,3,3,,,,,,,,,,,,,,,431.51431989899993,None,432.0113570630001,None,434.00286010699983,None,434.74377752400005,None,434.9899740999999,None,434.9899740999999,None,d,0,0.7337651749999168,434.9899740999999,None,435.74731869900006,None,435.74731869900006,None,d,0.3043959790002191,435.74731869900006,None,436.08092302299974,None,,,,,sub-07,06/10/2001,1: Male,21/09/2023,001,1: right,2023_Sep_21_1802,[FINAL]_fmri_multiplication,2021.2.3,60.03561168403355
block2.xlsx,69,7.5,4.9,6 x 2,12,6,6 x 2 = 12,small-sized_low-interference,small-sized,low-interference,3,CorrectRESP,a,0,1,1,1,0,4,4,4,,,,,,,,,,,,,,,448.08070591800015,None,448.5796505,None,450.57975007000005,None,451.3309232490001,None,451.5810305639998,None,451.5810305639998,None,d,0,0.6067596410002807,451.5810305639998,None,452.2136931599998,None,452.2136931599998,None,d,0.2860553800001071,452.2136931599998,None,452.53092755499983,None,,,,,sub-07,06/10/2001,1: Male,21/09/2023,001,1: right,2023_Sep_21_1802,[FINAL]_fmri_multiplication,2021.2.3,60.03561168403355
block2.xlsx,81.4,7.5,6.6,4 x 9,32,20,4 x 9 = 32,large-sized_high-interference,large-sized,high-interference,9,IncorrectRESP,d,0,1,1,1,0,5,5,5,,,,,,,,,,,,,,,457.43072238800005,None,457.93058621599994,None,459.9301124399999,None,460.67974470599984,None,460.93094980299975,None,460.93094980299975,None,a,0,0.8808557100001053,460.93094980299975,None,461.83112592299995,None,461.83112592299995,None,d,0.3326732360001188,461.83112592299995,None,462.1806205409998,None,,,,,sub-07,06/10/2001,1: Male,21/09/2023,001,1: right,2023_Sep_21_1802,[FINAL]_fmri_multiplication,2021.2.3,60.03561168403355
block2.xlsx,95.5,7.5,2.6,5 x 5,30,3,5 x 5 = 30,small-sized_low-interference,small-sized,low-interference,3,IncorrectRESP,d,0,1,1,1,0,6,6,6,,,,,,,,,,,,,,,468.7804247,None,469.28120150099994,None,471.2804966,None,472.03040476900014,None,472.28169622999985,None,472.28169622999985,None,a,0,0.7701572500000111,472.28169622999985,None,473.08075353699996,None,473.08075353699996,None,d,0.2990340669998659,473.08075353699996,None,473.39739849399984,None,,,,,sub-07,06/10/2001,1: Male,21/09/2023,001,1: right,2023_Sep_21_1802,[FINAL]_fmri_multiplication,2021.2.3,60.03561168403355
block2.xlsx,105.6,7.5,3.7,8 x 4,32,24,8 x 4 = 32,large-sized_high-interference,large-sized,high-interference,25,CorrectRESP,a,0,1,1,1,0,7,7,7,,,,,,,,,,,,,,,475.9968759379999,None,476.49705429200003,None,478.4975011759998,None,479.2476052940001,None,479.49721964499986,None,479.49721964499986,None,d,0,0.6505052399998021,479.49721964499986,None,480.18074488799994,None,480.18074488799994,None,d,0.2790222769999673,480.18074488799994,None,480.4803972949999,None,,,,,sub-07,06/10/2001,1: Male,21/09/2023,001,1: right,2023_Sep_21_1802,[FINAL]_fmri_multiplication,2021.2.3,60.03561168403355
block2.xlsx,116.8,7.5,3.1,2 x 9,16,2,2 x 9 = 16,small-sized_low-interference,small-sized,low-interference,7,IncorrectRESP,d,0,1,1,1,0,8,8,8,,,,,,,,,,,,,,,484.18072388200017,None,484.6794388489998,None,486.6802429479999,None,487.43075297199994,None,487.6797468,None,487.6797468,None,d,1,0.8439546660001724,487.6797468,None,488.54700770399995,None,488.54700770399995,None,d,1.272831462999875,488.54700770399995,None,489.8473315460001,None,,,,,sub-07,06/10/2001,1: Male,21/09/2023,001,1: right,2023_Sep_21_1802,[FINAL]_fmri_multiplication,2021.2.3,60.03561168403355
block2.xlsx,127.4,7.5,12.2,5 x 8,45,21,5 x 8 = 45,large-sized_high-interference,large-sized,high-interference,9,IncorrectRESP,d,0,1,1,1,0,9,9,9,,,,,,,,,,,,,,,492.94693536299974,None,493.4473824460001,None,495.4475306129998,None,496.1973460009999,None,496.4475158949999,None,496.4475158949999,None,a,0,1.0201944420000473,496.4475158949999,None,497.4971163709997,None,497.4971163709997,None,d,0.3307221430000027,497.4971163709997,None,497.8470135110001,None,,,,,sub-07,06/10/2001,1: Male,21/09/2023,001,1: right,2023_Sep_21_1802,[FINAL]_fmri_multiplication,2021.2.3,60.03561168403355
block2.xlsx,147.1,7.5,13.3,6 x 6,30,13,6 x 6 = 30,large-sized_low-interference,large-sized,low-interference,4,IncorrectRESP,d,0,1,1,1,0,10,10,10,,,,,,,,,,,,,,,510.04783386200006,None,510.5472078399998,None,512.5475162,None,513.2973146,None,513.5472728599998,None,513.5472728599998,None,a,0,1.328493711000192,513.5472728599998,None,514.8970955,None,514.8970955,None,d,0.34666773199978707,514.8970955,None,515.2636858259998,None,,,,,sub-07,06/10/2001,1: Male,21/09/2023,001,1: right,2023_Sep_21_1802,[FINAL]_fmri_multiplication,2021.2.3,60.03561168403355
block2.xlsx,167.9,7.5,2.8,7 x 3,21,11,7 x 3 = 21,small-sized_high-interference,small-sized,high-interference,13,CorrectRESP,a,0,1,1,1,0,11,11,11,,,,,,,,,,,,,,,528.5640005079999,None,529.0640523799998,None,531.0626856260001,None,531.8136237979998,None,532.0644776419999,None,532.0644776419999,None,d,0,0.6993743279999762,532.0644776419999,None,532.7808324019998,None,532.7808324019998,None,d,0.2629806280001503,532.7808324019998,None,533.0637564670001,None,,,,,sub-07,06/10/2001,1: Male,21/09/2023,001,1: right,2023_Sep_21_1802,[FINAL]_fmri_multiplication,2021.2.3,60.03561168403355
block2.xlsx,178.2,7.5,3.4,8 x 7,56,22,8 x 7 = 56,large-sized_high-interference,large-sized,high-interference,9,CorrectRESP,a,0,1,1,1,0,12,12,12,,,,,,,,,,,,,,,535.8641907440001,None,536.3641740419998,None,538.3646309840001,None,539.1145110289999,None,539.3648086089997,None,539.3648086089997,None,d,0,1.2629812179998225,539.3648086089997,None,540.6473919629998,None,540.6473919629998,None,d,0.21238803400001416,540.6473919629998,None,540.8806944809999,None,,,,,sub-07,06/10/2001,1: Male,21/09/2023,001,1: right,2023_Sep_21_1802,[FINAL]_fmri_multiplication,2021.2.3,60.03561168403355
block2.xlsx,189.1,7.5,3.9,3 x 8,24,12,3 x 8 = 24,small-sized_high-interference,small-sized,high-interference,13,CorrectRESP,a,0,1,1,1,0,13,13,13,,,,,,,,,,,,,,,544.2812391,None,544.7810572,None,546.7809978,None,547.5310363859999,None,547.7806563149998,None,547.7806563149998,None,d,0,0.6551723600000514,547.7806563149998,None,548.4640944769999,None,548.4640944769999,None,d,0.20373828499987212,548.4640944769999,None,548.6974260890001,None,,,,,sub-07,06/10/2001,1: Male,21/09/2023,001,1: right,2023_Sep_21_1802,[FINAL]_fmri_multiplication,2021.2.3,60.03561168403355
block2.xlsx,200.5,7.5,2,5 x 6,36,14,5 x 6 = 36,large-sized_low-interference,large-sized,low-interference,6,IncorrectRESP,d,0,1,1,1,0,14,14,14,,,,,,,,,,,,,,,552.5972656,None,553.0971691,None,555.0975640199999,None,555.8475302000002,None,556.0998668399998,None,556.0998668399998,None,d,1,1.079974712999956,556.0998668399998,None,557.1975033,None,557.1975033,None,d,0.31824941000013496,557.1975033,None,557.5473416,None,,,,,sub-07,06/10/2001,1: Male,21/09/2023,001,1: right,2023_Sep_21_1802,[FINAL]_fmri_multiplication,2021.2.3,60.03561168403355
block2.xlsx,210,7.5,8.2,7 x 2,12,1,7 x 2 = 12,small-sized_low-interference,small-sized,low-interference,4,IncorrectRESP,d,0,1,1,1,0,15,15,15,,,,,,,,,,,,,,,559.5474233270002,None,560.0470919220002,None,562.0640338469998,None,562.8141337789998,None,563.0646089309998,None,563.0646089309998,None,a,0,0.8912017349998678,563.0646089309998,None,563.9803699409999,None,563.9803699409999,None,d,0.3914468059997489,563.9803699409999,None,564.3962264,None,,,,,sub-07,06/10/2001,1: Male,21/09/2023,001,1: right,2023_Sep_21_1802,[FINAL]_fmri_multiplication,2021.2.3,60.03561168403355
block2.xlsx,225.7,7.5,6.5,9 x 9,81,16,9 x 9 = 81,large-sized_low-interference,large-sized,low-interference,6,CorrectRESP,a,0,1,1,1,0,16,16,16,,,,,,,,,,,,,,,572.5946365219997,None,573.0944587210001,None,575.0978263779998,None,575.8478436699997,None,576.0975155159999,None,576.0975155159999,None,d,0,0.818227104,576.0975155159999,None,576.9480110899999,None,576.9480110899999,None,d,0.18371939200005727,576.9480110899999,None,577.1643726900002,None,,,,,sub-07,06/10/2001,1: Male,21/09/2023,001,1: right,2023_Sep_21_1802,[FINAL]_fmri_multiplication,2021.2.3,60.03561168403355
block2.xlsx,239.7,7.5,6.2,4 x 5,16,8,4 x 5 = 16,small-sized_high-interference,small-sized,high-interference,8,IncorrectRESP,d,0,1,1,1,0,17,17,17,,,,,,,,,,,,,,,583.6641580979999,None,584.1637866249998,None,586.1640619909999,None,586.9143217,None,587.1654535809998,None,587.1654535809998,None,a,0,0.8623507970000901,587.1654535809998,None,588.0469671689998,None,588.0469671689998,None,d,0.4927596640000047,588.0469671689998,None,588.5636006,None,,,,,sub-07,06/10/2001,1: Male,21/09/2023,001,1: right,2023_Sep_21_1802,[FINAL]_fmri_multiplication,2021.2.3,60.03561168403355
block2.xlsx,253.4,7.5,11.8,8 x 2,16,5,8 x 2 = 16,small-sized_low-interference,small-sized,low-interference,7,CorrectRESP,a,0,1,1,1,0,18,18,18,,,,,,,,,,,,,,,594.7640626259999,None,595.2639167439997,None,597.2641589639998,None,598.0139206569997,None,598.2641210779998,None,598.2641210779998,None,d,0,0.7396987189999891,598.2641210779998,None,599.0306053029999,None,599.0306053029999,None,d,0.1891823729997668,599.0306053029999,None,599.2469432610001,None,,,,,sub-07,06/10/2001,1: Male,21/09/2023,001,1: right,2023_Sep_21_1802,[FINAL]_fmri_multiplication,2021.2.3,60.03561168403355
block2.xlsx,272.7,7.5,3.7,7 x 5,35,17,7 x 5 = 35,large-sized_low-interference,large-sized,low-interference,7,CorrectRESP,a,0,1,1,1,0,19,19,19,,,,,,,,,,,,,,,611.0439555,None,611.5393291519999,None,613.5478052640001,None,614.2979461340001,None,614.5479533,None,614.5479533,None,d,0,0.8957916510003088,614.5479533,None,615.4636592530001,None,615.4636592530001,None,d,0.5481067350001467,615.4636592530001,None,616.0300100680001,None,,,,,sub-07,06/10/2001,1: Male,21/09/2023,001,1: right,2023_Sep_21_1802,[FINAL]_fmri_multiplication,2021.2.3,60.03561168403355
block2.xlsx,283.9,7.5,6,6 x 3,15,7,6 x 3 = 15,small-sized_high-interference,small-sized,high-interference,8,IncorrectRESP,d,0,1,1,1,0,20,20,20,,,,,,,,,,,,,,,619.7306425490001,None,620.2303071289998,None,622.2308545989999,None,622.9806449389998,None,623.2311861110002,None,623.2311861110002,None,a,0,1.5405973279998761,623.2311861110002,None,624.7968425839999,None,624.7968425839999,None,d,0.32687411599999905,624.7968425839999,None,625.1473084650002,None,,,,,sub-07,06/10/2001,1: Male,21/09/2023,001,1: right,2023_Sep_21_1802,[FINAL]_fmri_multiplication,2021.2.3,60.03561168403355
block2.xlsx,297.4,7.5,6.1,9 x 3,24,19,9 x 3 = 24,large-sized_high-interference,large-sized,high-interference,9,IncorrectRESP,d,0,1,1,1,0,21,21,21,,,,,,,,,,,,,,,631.1473292,None,631.6472955,None,633.6474007349998,None,634.3970519509999,None,634.6476937,None,634.6476937,None,d,1,1.2040148099999897,634.6476937,None,635.8815457830001,None,635.8815457830001,None,d,0.33024093799986076,635.8815457830001,None,636.2301689679998,None,,,,,sub-07,06/10/2001,1: Male,21/09/2023,001,1: right,2023_Sep_21_1802,[FINAL]_fmri_multiplication,2021.2.3,60.03561168403355
block2.xlsx,311,7.5,5.1,4 x 4,16,4,4 x 4 = 16,small-sized_low-interference,small-sized,low-interference,5,CorrectRESP,a,0,1,1,1,0,22,22,22,,,,,,,,,,,,,,,642.3308830169999,None,642.8276423,None,644.8311169869999,None,645.5809246610002,None,645.8318452240001,None,645.8318452240001,None,d,0,0.7559756399996331,645.8318452240001,None,646.6141378,None,646.6141378,None,d,0.21371291400009795,646.6141378,None,646.8472810869998,None,,,,,sub-07,06/10/2001,1: Male,21/09/2023,001,1: right,2023_Sep_21_1802,[FINAL]_fmri_multiplication,2021.2.3,60.03561168403355
block2.xlsx,323.6,7.5,3.9,7 x 7,49,18,7 x 7 = 49,large-sized_low-interference,large-sized,low-interference,7,CorrectRESP,a,0,1,1,1,0,23,23,23,,,,,,,,,,,,,,,651.9475155300001,None,652.4470289689998,None,654.4474269,None,655.1974840620001,None,655.4482600719998,None,655.4482600719998,None,d,0,0.9235631279998415,655.4482600719998,None,656.3966058659998,None,656.3966058659998,None,d,0.18331167999986064,656.3966058659998,None,656.596763,None,,,,,sub-07,06/10/2001,1: Male,21/09/2023,001,1: right,2023_Sep_21_1802,[FINAL]_fmri_multiplication,2021.2.3,60.03561168403355
block2.xlsx,,,,,,,,,,,,,,0,1,1,1,,,,,0,0,0,0,,,,,,,,,,,,,,,,,,,,,,,,,,,,,,,,,,,,,,660.4999612359998,None,660.4999612359998,None,sub-07,06/10/2001,1: Male,21/09/2023,001,1: right,2023_Sep_21_1802,[FINAL]_fmri_multiplication,2021.2.3,60.03561168403355
block2.xlsx,,,,,,,,,,,,,,0,1,1,1,,,,,1,0,1,0,,,,,,,,,,,,,,,,,,,,,,,,,,,,,,,,,,,,,,661.5151218400001,None,661.5151218400001,None,sub-07,06/10/2001,1: Male,21/09/2023,001,1: right,2023_Sep_21_1802,[FINAL]_fmri_multiplication,2021.2.3,60.03561168403355
block2.xlsx,,,,,,,,,,,,,,0,1,1,1,,,,,2,0,2,0,,,,,,,,,,,,,,,,,,,,,,,,,,,,,,,,,,,,,,662.5143492719999,None,662.5143492719999,None,sub-07,06/10/2001,1: Male,21/09/2023,001,1: right,2023_Sep_21_1802,[FINAL]_fmri_multiplication,2021.2.3,60.03561168403355
block2.xlsx,,,,,,,,,,,,,,0,1,1,1,,,,,3,0,3,0,,,,,,,,,,,,,,,,,,,,,,,,,,,,,,,,,,,,,,663.5145960300001,None,663.5145960300001,None,sub-07,06/10/2001,1: Male,21/09/2023,001,1: right,2023_Sep_21_1802,[FINAL]_fmri_multiplication,2021.2.3,60.03561168403355
block2.xlsx,,,,,,,,,,,,,,0,1,1,1,,,,,4,0,4,0,,,,,,,,,,,,,,,,,,,,,,,,,,,,,,,,,,,,,,664.5141707950002,None,664.5141707950002,None,sub-07,06/10/2001,1: Male,21/09/2023,001,1: right,2023_Sep_21_1802,[FINAL]_fmri_multiplication,2021.2.3,60.03561168403355
block2.xlsx,,,,,,,,,,,,,,0,1,1,1,,,,,5,0,5,0,,,,,,,,,,,,,,,,,,,,,,,,,,,,,,,,,,,,,,665.5149156100001,None,665.5149156100001,None,sub-07,06/10/2001,1: Male,21/09/2023,001,1: right,2023_Sep_21_1802,[FINAL]_fmri_multiplication,2021.2.3,60.03561168403355
block2.xlsx,,,,,,,,,,,,,,0,1,1,1,,,,,6,0,6,0,,,,,,,,,,,,,,,,,,,,,,,,,,,,,,,,,,,,,,666.5141392689998,None,666.5141392689998,None,sub-07,06/10/2001,1: Male,21/09/2023,001,1: right,2023_Sep_21_1802,[FINAL]_fmri_multiplication,2021.2.3,60.03561168403355
block2.xlsx,,,,,,,,,,,,,,0,1,1,1,,,,,7,0,7,0,,,,,,,,,,,,,,,,,,,,,,,,,,,,,,,,,,,,,,667.5144144,None,667.5144144,None,sub-07,06/10/2001,1: Male,21/09/2023,001,1: right,2023_Sep_21_1802,[FINAL]_fmri_multiplication,2021.2.3,60.03561168403355
block2.xlsx,,,,,,,,,,,,,,0,1,1,1,,,,,8,0,8,0,,,,,,,,,,,,,,,,,,,,,,,,,,,,,,,,,,,,,,668.5143245,None,668.5143245,None,sub-07,06/10/2001,1: Male,21/09/2023,001,1: right,2023_Sep_21_1802,[FINAL]_fmri_multiplication,2021.2.3,60.03561168403355
block2.xlsx,,,,,,,,,,,,,,0,1,1,1,,,,,9,0,9,0,,,,,,,,,,,,,,,,,,,,,,,,,,,,,,,,,,,,,,669.5143641730001,None,669.5143641730001,None,sub-07,06/10/2001,1: Male,21/09/2023,001,1: right,2023_Sep_21_1802,[FINAL]_fmri_multiplication,2021.2.3,60.03561168403355
block2.xlsx,,,,,,,,,,,,,,0,1,1,1,,,,,10,0,10,0,,,,,,,,,,,,,,,,,,,,,,,,,,,,,,,,,,,,,,670.5141315790001,None,670.5141315790001,None,sub-07,06/10/2001,1: Male,21/09/2023,001,1: right,2023_Sep_21_1802,[FINAL]_fmri_multiplication,2021.2.3,60.03561168403355
block2.xlsx,,,,,,,,,,,,,,0,1,1,1,,,,,11,0,11,0,,,,,,,,,,,,,,,,,,,,,,,,,,,,,,,,,,,,,,671.5147831549998,None,671.5147831549998,None,sub-07,06/10/2001,1: Male,21/09/2023,001,1: right,2023_Sep_21_1802,[FINAL]_fmri_multiplication,2021.2.3,60.03561168403355
block2.xlsx,,,,,,,,,,,,,,0,1,1,1,,,,,12,0,12,0,,,,,,,,,,,,,,,,,,,,,,,,,,,,,,,,,,,,,,672.5153826639998,None,672.5153826639998,None,sub-07,06/10/2001,1: Male,21/09/2023,001,1: right,2023_Sep_21_1802,[FINAL]_fmri_multiplication,2021.2.3,60.03561168403355
block2.xlsx,,,,,,,,,,,,,,0,1,1,1,,,,,13,0,13,0,,,,,,,,,,,,,,,,,,,,,,,,,,,,,,,,,,,,,,673.5155234079998,None,673.5155234079998,None,sub-07,06/10/2001,1: Male,21/09/2023,001,1: right,2023_Sep_21_1802,[FINAL]_fmri_multiplication,2021.2.3,60.03561168403355
block2.xlsx,,,,,,,,,,,,,,0,1,1,1,,,,,14,0,14,0,,,,,,,,,,,,,,,,,,,,,,,,,,,,,,,,,,,,,,674.5157680940001,None,674.5157680940001,None,sub-07,06/10/2001,1: Male,21/09/2023,001,1: right,2023_Sep_21_1802,[FINAL]_fmri_multiplication,2021.2.3,60.03561168403355
block2.xlsx,,,,,,,,,,,,,,0,1,1,1,,,,,15,0,15,0,,,,,,,,,,,,,,,,,,,,,,,,,,,,,,,,,,,,,,675.5151008789999,None,675.5151008789999,None,sub-07,06/10/2001,1: Male,21/09/2023,001,1: right,2023_Sep_21_1802,[FINAL]_fmri_multiplication,2021.2.3,60.03561168403355
block2.xlsx,,,,,,,,,,,,,,0,1,1,1,,,,,16,0,16,0,,,,,,,,,,,,,,,,,,,,,,,,,,,,,,,,,,,,,,676.5161925369998,None,676.5161925369998,None,sub-07,06/10/2001,1: Male,21/09/2023,001,1: right,2023_Sep_21_1802,[FINAL]_fmri_multiplication,2021.2.3,60.03561168403355
block2.xlsx,,,,,,,,,,,,,,0,1,1,1,,,,,17,0,17,0,,,,,,,,,,,,,,,,,,,,,,,,,,,,,,,,,,,,,,677.5162892879998,None,677.5162892879998,None,sub-07,06/10/2001,1: Male,21/09/2023,001,1: right,2023_Sep_21_1802,[FINAL]_fmri_multiplication,2021.2.3,60.03561168403355
block2.xlsx,,,,,,,,,,,,,,0,1,1,1,,,,,18,0,18,0,,,,,,,,,,,,,,,,,,,,,,,,,,,,,,,,,,,,,,678.5155088,None,678.5155088,None,sub-07,06/10/2001,1: Male,21/09/2023,001,1: right,2023_Sep_21_1802,[FINAL]_fmri_multiplication,2021.2.3,60.03561168403355
block2.xlsx,,,,,,,,,,,,,,0,1,1,1,,,,,19,0,19,0,,,,,,,,,,,,,,,,,,,,,,,,,,,,,,,,,,,,,,679.5146931,None,679.5146931,None,sub-07,06/10/2001,1: Male,21/09/2023,001,1: right,2023_Sep_21_1802,[FINAL]_fmri_multiplication,2021.2.3,60.03561168403355
block2.xlsx,,,,,,,,,,,,,,0,1,1,1,,,,,20,0,20,0,,,,,,,,,,,,,,,,,,,,,,,,,,,,,,,,,,,,,,680.5147689,None,680.5147689,None,sub-07,06/10/2001,1: Male,21/09/2023,001,1: right,2023_Sep_21_1802,[FINAL]_fmri_multiplication,2021.2.3,60.03561168403355
block2.xlsx,,,,,,,,,,,,,,0,1,1,1,,,,,21,0,21,0,,,,,,,,,,,,,,,,,,,,,,,,,,,,,,,,,,,,,,681.5159457579998,None,681.5159457579998,None,sub-07,06/10/2001,1: Male,21/09/2023,001,1: right,2023_Sep_21_1802,[FINAL]_fmri_multiplication,2021.2.3,60.03561168403355
block2.xlsx,,,,,,,,,,,,,,0,1,1,1,,,,,22,0,22,0,,,,,,,,,,,,,,,,,,,,,,,,,,,,,,,,,,,,,,682.5144772079998,None,682.5144772079998,None,sub-07,06/10/2001,1: Male,21/09/2023,001,1: right,2023_Sep_21_1802,[FINAL]_fmri_multiplication,2021.2.3,60.03561168403355
block2.xlsx,,,,,,,,,,,,,,0,1,1,1,,,,,23,0,23,0,,,,,,,,,,,,,,,,,,,,,,,,,,,,,,,,,,,,,,683.5144792659999,None,683.5144792659999,None,sub-07,06/10/2001,1: Male,21/09/2023,001,1: right,2023_Sep_21_1802,[FINAL]_fmri_multiplication,2021.2.3,60.03561168403355
block2.xlsx,,,,,,,,,,,,,,0,1,1,1,,,,,24,0,24,0,,,,,,,,,,,,,,,,,,,,,,,,,,,,,,,,,,,,,,684.5145773529998,None,684.5145773529998,None,sub-07,06/10/2001,1: Male,21/09/2023,001,1: right,2023_Sep_21_1802,[FINAL]_fmri_multiplication,2021.2.3,60.03561168403355
block2.xlsx,,,,,,,,,,,,,,0,1,1,1,,,,,25,0,25,0,,,,,,,,,,,,,,,,,,,,,,,,,,,,,,,,,,,,,,685.5145821699998,None,685.5145821699998,None,sub-07,06/10/2001,1: Male,21/09/2023,001,1: right,2023_Sep_21_1802,[FINAL]_fmri_multiplication,2021.2.3,60.03561168403355
block2.xlsx,,,,,,,,,,,,,,0,1,1,1,,,,,26,0,26,0,,,,,,,,,,,,,,,,,,,,,,,,,,,,,,,,,,,,,,686.5143933129998,None,686.5143933129998,None,sub-07,06/10/2001,1: Male,21/09/2023,001,1: right,2023_Sep_21_1802,[FINAL]_fmri_multiplication,2021.2.3,60.03561168403355
block2.xlsx,,,,,,,,,,,,,,0,1,1,1,,,,,27,0,27,0,,,,,,,,,,,,,,,,,,,,,,,,,,,,,,,,,,,,,,687.5140558049998,None,687.5140558049998,None,sub-07,06/10/2001,1: Male,21/09/2023,001,1: right,2023_Sep_21_1802,[FINAL]_fmri_multiplication,2021.2.3,60.03561168403355
block2.xlsx,,,,,,,,,,,,,,0,1,1,1,,,,,28,0,28,0,,,,,,,,,,,,,,,,,,,,,,,,,,,,,,,,,,,,,,688.5139992559998,None,688.5139992559998,None,sub-07,06/10/2001,1: Male,21/09/2023,001,1: right,2023_Sep_21_1802,[FINAL]_fmri_multiplication,2021.2.3,60.03561168403355
block2.xlsx,,,,,,,,,,,,,,0,1,1,1,,,,,29,0,29,0,,,,,,,,,,,,,,,,,,,,,,,,,,,,,,,,,,,,,,689.5138402080001,None,689.5138402080001,None,sub-07,06/10/2001,1: Male,21/09/2023,001,1: right,2023_Sep_21_1802,[FINAL]_fmri_multiplication,2021.2.3,60.03561168403355
block2.xlsx,,,,,,,,,,,,,,0,1,1,1,,,,,,,,,,,,,,,,,,,,,,,,,,,,,,,,,,,,,,,,,,,,,,,,,,sub-07,06/10/2001,1: Male,21/09/2023,001,1: right,2023_Sep_21_1802,[FINAL]_fmri_multiplication,2021.2.3,60.03561168403355
block3.xlsx,10,7.5,5.9,6 x 4,24,10,6 x 4 = 24,small-sized_high-interference,small-sized,high-interference,12,CorrectRESP,a,0,2,2,2,0,0,0,0,,,,,,,,,,,,,690.5142121939998,None,700.5383858780001,None,701.0138210079999,None,703.0140058859997,None,703.7635787179997,None,704.0142908960001,None,704.0142908960001,None,d,0,0.8294737470000655,704.0142908960001,None,704.8638339280001,None,704.8638339280001,None,d,0.2758854280000378,704.8638339280001,None,705.1639976809997,None,,,,,sub-07,06/10/2001,1: Male,21/09/2023,001,1: right,2023_Sep_21_1802,[FINAL]_fmri_multiplication,2021.2.3,60.03561168403355
block3.xlsx,23.4,7.5,2,6 x 6,30,13,6 x 6 = 30,large-sized_low-interference,large-sized,low-interference,4,IncorrectRESP,d,0,2,2,2,0,1,1,1,,,,,,,,,,,,,,,711.0641040669998,None,711.5639386550001,None,713.5644947549999,None,714.3145803530001,None,714.5645608,None,714.5645608,None,a,0,1.4152493579999827,714.5645608,None,715.9975964,None,715.9975964,None,d,0.3662580119998893,715.9975964,None,716.381202,None,,,,,sub-07,06/10/2001,1: Male,21/09/2023,001,1: right,2023_Sep_21_1802,[FINAL]_fmri_multiplication,2021.2.3,60.03561168403355
block3.xlsx,32.9,7.5,3.2,2 x 9,18,2,2 x 9 = 18,small-sized_low-interference,small-sized,low-interference,7,CorrectRESP,a,0,2,2,2,0,2,2,2,,,,,,,,,,,,,,,718.3810757,None,718.8811690819998,None,720.8811400939999,None,721.6310672179998,None,721.8808939189998,None,721.8808939189998,None,d,0,0.7788343410002199,721.8808939189998,None,722.6803746830001,None,722.6803746830001,None,d,0.18745954699988943,722.6803746830001,None,722.8970421129998,None,,,,,sub-07,06/10/2001,1: Male,21/09/2023,001,1: right,2023_Sep_21_1802,[FINAL]_fmri_multiplication,2021.2.3,60.03561168403355
block3.xlsx,43.6,7.5,6,3 x 4,12,9,3 x 4 = 12,small-sized_high-interference,small-sized,high-interference,10,CorrectRESP,a,0,2,2,2,0,3,3,3,,,,,,,,,,,,,,,726.0979955590001,None,726.5970829090002,None,728.5971828769998,None,729.3474050509999,None,729.5970157,None,729.5970157,None,d,0,0.7187245420000181,729.5970157,None,730.3473605,None,730.3473605,None,d,0.16835888700006763,730.3473605,None,730.5472259859998,None,,,,,sub-07,06/10/2001,1: Male,21/09/2023,001,1: right,2023_Sep_21_1802,[FINAL]_fmri_multiplication,2021.2.3,60.03561168403355
block3.xlsx,57.1,7.5,13.3,7 x 5,40,17,7 x 5 = 40,large-sized_low-interference,large-sized,low-interference,7,IncorrectRESP,d,0,2,2,2,0,4,4,4,,,,,,,,,,,,,,,736.5474414380001,None,737.0474778,None,739.0469114130001,None,739.797446,None,740.0478050030001,None,740.0478050030001,None,a,0,0.8759277849999307,740.0478050030001,None,740.9469691720001,None,740.9469691720001,None,d,0.32877006399985476,740.9469691720001,None,741.2969085499999,None,,,,,sub-07,06/10/2001,1: Male,21/09/2023,001,1: right,2023_Sep_21_1802,[FINAL]_fmri_multiplication,2021.2.3,60.03561168403355
block3.xlsx,77.9,7.5,2,8 x 7,56,22,8 x 7 = 56,large-sized_high-interference,large-sized,high-interference,9,CorrectRESP,a,0,2,2,2,0,5,5,5,,,,,,,,,,,,,,,754.5978936,None,755.0978035409998,None,757.0978160310001,None,757.8476625009998,None,758.0991746029999,None,758.0991746029999,None,d,0,0.8405940520001423,758.0991746029999,None,758.9635483,None,758.9635483,None,d,0.19227275699995516,758.9635483,None,759.1806461,None,,,,,sub-07,06/10/2001,1: Male,21/09/2023,001,1: right,2023_Sep_21_1802,[FINAL]_fmri_multiplication,2021.2.3,60.03561168403355
block3.xlsx,87.4,7.5,2.6,9 x 9,81,16,9 x 9 = 81,large-sized_low-interference,large-sized,low-interference,6,CorrectRESP,a,0,2,2,2,0,6,6,6,,,,,,,,,,,,,,,761.1809018280001,None,761.6805565,None,763.6808109829999,None,764.4306749699999,None,764.6809556529997,None,764.6809556529997,None,a,1,1.6908407249998163,764.6809556529997,None,766.3971147,None,766.3971147,None,d,0.3506021299999702,766.3971147,None,766.7807728,None,,,,,sub-07,06/10/2001,1: Male,21/09/2023,001,1: right,2023_Sep_21_1802,[FINAL]_fmri_multiplication,2021.2.3,60.03561168403355
block3.xlsx,97.5,7.5,2.7,4 x 5,20,8,4 x 5 = 20,small-sized_high-interference,small-sized,high-interference,8,CorrectRESP,a,0,2,2,2,0,7,7,7,,,,,,,,,,,,,,,769.3803628269998,None,769.8795510619998,None,771.8807135769998,None,772.6302180130001,None,772.8807257,None,772.8807257,None,d,0,0.6109783179999795,772.8807257,None,773.5136187849998,None,773.5136187849998,None,d,0.18609219699965251,773.5136187849998,None,773.7308944269998,None,,,,,sub-07,06/10/2001,1: Male,21/09/2023,001,1: right,2023_Sep_21_1802,[FINAL]_fmri_multiplication,2021.2.3,60.03561168403355
block3.xlsx,107.7,7.5,8.4,9 x 3,24,19,9 x 3 = 24,large-sized_high-interference,large-sized,high-interference,9,IncorrectRESP,d,0,2,2,2,0,8,8,8,,,,,,,,,,,,,,,776.4305021380001,None,776.9307883490001,None,778.9308224400002,None,779.6808361809999,None,779.9449543559999,None,779.9449543559999,None,a,0,0.73875888,779.9449543559999,None,780.7138975389998,None,780.7138975389998,None,d,0.19388733499999944,780.7138975389998,None,780.9300097,None,,,,,sub-07,06/10/2001,1: Male,21/09/2023,001,1: right,2023_Sep_21_1802,[FINAL]_fmri_multiplication,2021.2.3,60.03561168403355
block3.xlsx,123.6,7.5,2.2,9 x 5,45,15,9 x 5 = 45,large-sized_low-interference,large-sized,low-interference,6,CorrectRESP,a,0,2,2,2,0,9,9,9,,,,,,,,,,,,,,,789.3311767,None,789.8312776299999,None,791.8311076599998,None,792.5808064049997,None,792.8313013809998,None,792.8313013809998,None,d,0,0.6924399240001549,792.8313013809998,None,793.5469355079999,None,793.5469355079999,None,d,0.16878203099986422,793.5469355079999,None,793.7474011,None,,,,,sub-07,06/10/2001,1: Male,21/09/2023,001,1: right,2023_Sep_21_1802,[FINAL]_fmri_multiplication,2021.2.3,60.03561168403355
block3.xlsx,133.3,7.5,9.7,4 x 4,16,4,4 x 4 = 16,small-sized_low-interference,small-sized,low-interference,5,CorrectRESP,a,0,2,2,2,0,10,10,10,,,,,,,,,,,,,,,795.9475543150002,None,796.4470535639998,None,798.4474752,None,799.1972680019999,None,799.4483379,None,799.4483379,None,d,0,1.0513724580000599,799.4483379,None,800.5306889089998,None,800.5306889089998,None,d,0.19304036499988797,800.5306889089998,None,800.7469778,None,,,,,sub-07,06/10/2001,1: Male,21/09/2023,001,1: right,2023_Sep_21_1802,[FINAL]_fmri_multiplication,2021.2.3,60.03561168403355
block3.xlsx,150.5,7.5,5.4,8 x 4,28,24,8 x 4 = 28,large-sized_high-interference,large-sized,high-interference,25,IncorrectRESP,d,0,2,2,2,0,11,11,11,,,,,,,,,,,,,,,810.4470384759998,None,810.9474511979997,None,812.9472968159998,None,813.6974425859999,None,813.9477765080001,None,813.9477765080001,None,a,0,1.0079343550000885,813.9477765080001,None,814.9798947529998,None,814.9798947529998,None,d,0.26389988400023867,814.9798947529998,None,815.2637601430001,None,,,,,sub-07,06/10/2001,1: Male,21/09/2023,001,1: right,2023_Sep_21_1802,[FINAL]_fmri_multiplication,2021.2.3,60.03561168403355
block3.xlsx,163.4,7.5,10.5,8 x 2,18,5,8 x 2 = 18,small-sized_low-interference,small-sized,low-interference,7,IncorrectRESP,d,0,2,2,2,0,12,12,12,,,,,,,,,,,,,,,820.6645766209999,None,821.1645033,None,823.1645279449999,None,823.9144777629999,None,824.1643484749998,None,824.1643484749998,None,a,0,1.5513659680000274,824.1643484749998,None,825.7475989619998,None,825.7475989619998,None,d,0.25619119699967996,825.7475989619998,None,826.0306951299999,None,,,,,sub-07,06/10/2001,1: Male,21/09/2023,001,1: right,2023_Sep_21_1802,[FINAL]_fmri_multiplication,2021.2.3,60.03561168403355
block3.xlsx,181.4,7.5,3.5,7 x 6,48,23,7 x 6 = 48,large-sized_high-interference,large-sized,high-interference,22,IncorrectRESP,d,0,2,2,2,0,13,13,13,,,,,,,,,,,,,,,836.5307914,None,837.0303688710001,None,839.0307015,None,839.7809804389999,None,840.0307660190001,None,840.0307660190001,None,a,0,0.8369252590000542,840.0307660190001,None,840.8974824910001,None,840.8974824910001,None,d,0.1942249889998493,840.8974824910001,None,841.1136864710002,None,,,,,sub-07,06/10/2001,1: Male,21/09/2023,001,1: right,2023_Sep_21_1802,[FINAL]_fmri_multiplication,2021.2.3,60.03561168403355
block3.xlsx,192.4,7.5,11.8,5 x 6,30,14,5 x 6 = 30,large-sized_low-interference,large-sized,low-interference,6,CorrectRESP,a,0,2,2,2,0,14,14,14,,,,,,,,,,,,,,,844.6134539509999,None,845.1138734430001,None,847.1139126,None,847.8635000660001,None,848.1145120699998,None,848.1145120699998,None,a,1,0.9213088950000383,848.1145120699998,None,849.0620851680001,None,849.0620851680001,None,d,0.24569438400021681,849.0620851680001,None,849.3303415300002,None,,,,,sub-07,06/10/2001,1: Male,21/09/2023,001,1: right,2023_Sep_21_1802,[FINAL]_fmri_multiplication,2021.2.3,60.03561168403355
block3.xlsx,211.7,7.5,3.7,4 x 9,36,20,4 x 9 = 36,large-sized_high-interference,large-sized,high-interference,9,CorrectRESP,a,0,2,2,2,0,15,15,15,,,,,,,,,,,,,,,861.143302,None,861.6478166,None,863.6476399120002,None,864.3967378510001,None,864.6466794,None,864.6466794,None,d,0,0.8530291089996354,864.6466794,None,865.5305569309999,None,865.5305569309999,None,d,0.2011529229998814,865.5305569309999,None,865.7640433649999,None,,,,,sub-07,06/10/2001,1: Male,21/09/2023,001,1: right,2023_Sep_21_1802,[FINAL]_fmri_multiplication,2021.2.3,60.03561168403355
block3.xlsx,222.9,7.5,2.5,7 x 7,56,18,7 x 7 = 56,large-sized_low-interference,large-sized,low-interference,7,IncorrectRESP,d,0,2,2,2,0,16,16,16,,,,,,,,,,,,,,,869.4641372679998,None,869.9640679079998,None,871.9640882,None,872.7140975980001,None,872.9643968199998,None,872.9643968199998,None,a,0,0.8474841829997786,872.9643968199998,None,873.8303432,None,873.8303432,None,d,0.27745892000029926,873.8303432,None,874.1302941899999,None,,,,,sub-07,06/10/2001,1: Male,21/09/2023,001,1: right,2023_Sep_21_1802,[FINAL]_fmri_multiplication,2021.2.3,60.03561168403355
block3.xlsx,232.9,7.5,9,6 x 3,15,7,6 x 3 = 15,small-sized_high-interference,small-sized,high-interference,8,IncorrectRESP,d,0,2,2,2,0,17,17,17,,,,,,,,,,,,,,,876.6304502789999,None,877.1305345,None,879.1309195019999,None,879.8807465,None,880.1314475,None,880.1314475,None,a,0,1.8722658070000762,880.1314475,None,882.0301581,None,882.0301581,None,d,0.22957700400002068,882.0301581,None,882.2803232749998,None,,,,,sub-07,06/10/2001,1: Male,21/09/2023,001,1: right,2023_Sep_21_1802,[FINAL]_fmri_multiplication,2021.2.3,60.03561168403355
block3.xlsx,249.4,7.5,9.5,7 x 2,12,1,7 x 2 = 12,small-sized_low-interference,small-sized,low-interference,4,IncorrectRESP,d,0,2,2,2,0,18,18,18,,,,,,,,,,,,,,,891.2811735279997,None,891.7808232309999,None,893.7811134,None,894.5311283279998,None,894.7809702579998,None,894.7809702579998,None,a,0,0.7267974379997213,894.7809702579998,None,895.5306597,None,895.5306597,None,d,0.22515308399988498,895.5306597,None,895.7808753129998,None,,,,,sub-07,06/10/2001,1: Male,21/09/2023,001,1: right,2023_Sep_21_1802,[FINAL]_fmri_multiplication,2021.2.3,60.03561168403355
block3.xlsx,266.4,7.5,11.1,5 x 8,40,21,5 x 8 = 40,large-sized_high-interference,large-sized,high-interference,9,CorrectRESP,a,0,2,2,2,0,19,19,19,,,,,,,,,,,,,,,905.2808274,None,905.7807845869997,None,907.7974673529998,None,908.5474064,None,908.7972767890001,None,908.7972767890001,None,d,0,0.7424336760000187,908.7972767890001,None,909.5636321890001,None,909.5636321890001,None,d,0.21619838799961144,909.5636321890001,None,909.7967737489998,None,,,,,sub-07,06/10/2001,1: Male,21/09/2023,001,1: right,2023_Sep_21_1802,[FINAL]_fmri_multiplication,2021.2.3,60.03561168403355
block3.xlsx,285,7.5,3.8,3 x 8,21,12,3 x 8 = 21,small-sized_high-interference,small-sized,high-interference,13,IncorrectRESP,d,0,2,2,2,0,20,20,20,,,,,,,,,,,,,,,920.8970835209998,None,921.3980366780002,None,923.3975517,None,924.1554137009998,None,924.4115532159999,None,924.4115532159999,None,a,0,0.8961930519999441,924.4115532159999,None,925.3307961589999,None,925.3307961589999,None,d,0.2649935050003478,925.3307961589999,None,925.6139975279998,None,,,,,sub-07,06/10/2001,1: Male,21/09/2023,001,1: right,2023_Sep_21_1802,[FINAL]_fmri_multiplication,2021.2.3,60.03561168403355
block3.xlsx,296.3,7.5,11.2,5 x 5,25,3,5 x 5 = 25,small-sized_low-interference,small-sized,low-interference,3,CorrectRESP,a,0,2,2,2,0,21,21,21,,,,,,,,,,,,,,,929.4142624259998,None,929.9146177,None,931.9144737450001,None,932.6643565,None,932.9143969900001,None,932.9143969900001,None,d,0,0.8893452879997312,932.9143969900001,None,933.8304151940001,None,933.8304151940001,None,d,0.2054071389998171,933.8304151940001,None,934.0643235,None,,,,,sub-07,06/10/2001,1: Male,21/09/2023,001,1: right,2023_Sep_21_1802,[FINAL]_fmri_multiplication,2021.2.3,60.03561168403355
block3.xlsx,315,7.5,2.6,7 x 3,24,11,7 x 3 = 24,small-sized_high-interference,small-sized,high-interference,13,IncorrectRESP,d,0,2,2,2,0,22,22,22,,,,,,,,,,,,,,,945.264101,None,945.7639902989999,None,947.7639813549999,None,948.5136614,None,948.7649224,None,948.7649224,None,a,0,1.6068890520000423,948.7649224,None,950.3973225139998,None,950.3973225139998,None,d,0.32639779100009036,950.3973225139998,None,950.7472299649999,None,,,,,sub-07,06/10/2001,1: Male,21/09/2023,001,1: right,2023_Sep_21_1802,[FINAL]_fmri_multiplication,2021.2.3,60.03561168403355
block3.xlsx,325.1,7.5,2.4,6 x 2,10,6,6 x 2 = 10,small-sized_low-interference,small-sized,low-interference,3,IncorrectRESP,d,0,2,2,2,0,23,23,23,,,,,,,,,,,,,,,953.3474519249999,None,953.8472972250001,None,955.8474626679999,None,956.5975634179999,None,956.8476142149998,None,956.8476142149998,None,a,0,1.4200997709999683,956.8476142149998,None,958.2974515400001,None,958.2974515400001,None,d,0.37831578199984506,958.2974515400001,None,958.6971296,None,,,,,sub-07,06/10/2001,1: Male,21/09/2023,001,1: right,2023_Sep_21_1802,[FINAL]_fmri_multiplication,2021.2.3,60.03561168403355
block3.xlsx,,,,,,,,,,,,,,0,2,2,2,,,,,0,0,0,0,,,,,,,,,,,,,,,,,,,,,,,,,,,,,,,,,,,,,,961.0994242819997,None,961.0994242819997,None,sub-07,06/10/2001,1: Male,21/09/2023,001,1: right,2023_Sep_21_1802,[FINAL]_fmri_multiplication,2021.2.3,60.03561168403355
block3.xlsx,,,,,,,,,,,,,,0,2,2,2,,,,,1,0,1,0,,,,,,,,,,,,,,,,,,,,,,,,,,,,,,,,,,,,,,962.1148062869997,None,962.1148062869997,None,sub-07,06/10/2001,1: Male,21/09/2023,001,1: right,2023_Sep_21_1802,[FINAL]_fmri_multiplication,2021.2.3,60.03561168403355
block3.xlsx,,,,,,,,,,,,,,0,2,2,2,,,,,2,0,2,0,,,,,,,,,,,,,,,,,,,,,,,,,,,,,,,,,,,,,,963.1145192419999,None,963.1145192419999,None,sub-07,06/10/2001,1: Male,21/09/2023,001,1: right,2023_Sep_21_1802,[FINAL]_fmri_multiplication,2021.2.3,60.03561168403355
block3.xlsx,,,,,,,,,,,,,,0,2,2,2,,,,,3,0,3,0,,,,,,,,,,,,,,,,,,,,,,,,,,,,,,,,,,,,,,964.1169598,None,964.1169598,None,sub-07,06/10/2001,1: Male,21/09/2023,001,1: right,2023_Sep_21_1802,[FINAL]_fmri_multiplication,2021.2.3,60.03561168403355
block3.xlsx,,,,,,,,,,,,,,0,2,2,2,,,,,4,0,4,0,,,,,,,,,,,,,,,,,,,,,,,,,,,,,,,,,,,,,,965.1169191119998,None,965.1169191119998,None,sub-07,06/10/2001,1: Male,21/09/2023,001,1: right,2023_Sep_21_1802,[FINAL]_fmri_multiplication,2021.2.3,60.03561168403355
block3.xlsx,,,,,,,,,,,,,,0,2,2,2,,,,,5,0,5,0,,,,,,,,,,,,,,,,,,,,,,,,,,,,,,,,,,,,,,966.1147271740001,None,966.1147271740001,None,sub-07,06/10/2001,1: Male,21/09/2023,001,1: right,2023_Sep_21_1802,[FINAL]_fmri_multiplication,2021.2.3,60.03561168403355
block3.xlsx,,,,,,,,,,,,,,0,2,2,2,,,,,6,0,6,0,,,,,,,,,,,,,,,,,,,,,,,,,,,,,,,,,,,,,,967.1154658340001,None,967.1154658340001,None,sub-07,06/10/2001,1: Male,21/09/2023,001,1: right,2023_Sep_21_1802,[FINAL]_fmri_multiplication,2021.2.3,60.03561168403355
block3.xlsx,,,,,,,,,,,,,,0,2,2,2,,,,,7,0,7,0,,,,,,,,,,,,,,,,,,,,,,,,,,,,,,,,,,,,,,968.1153588,None,968.1153588,None,sub-07,06/10/2001,1: Male,21/09/2023,001,1: right,2023_Sep_21_1802,[FINAL]_fmri_multiplication,2021.2.3,60.03561168403355
block3.xlsx,,,,,,,,,,,,,,0,2,2,2,,,,,8,0,8,0,,,,,,,,,,,,,,,,,,,,,,,,,,,,,,,,,,,,,,969.1151819,None,969.1151819,None,sub-07,06/10/2001,1: Male,21/09/2023,001,1: right,2023_Sep_21_1802,[FINAL]_fmri_multiplication,2021.2.3,60.03561168403355
block3.xlsx,,,,,,,,,,,,,,0,2,2,2,,,,,9,0,9,0,,,,,,,,,,,,,,,,,,,,,,,,,,,,,,,,,,,,,,970.1139309539999,None,970.1139309539999,None,sub-07,06/10/2001,1: Male,21/09/2023,001,1: right,2023_Sep_21_1802,[FINAL]_fmri_multiplication,2021.2.3,60.03561168403355
block3.xlsx,,,,,,,,,,,,,,0,2,2,2,,,,,10,0,10,0,,,,,,,,,,,,,,,,,,,,,,,,,,,,,,,,,,,,,,971.1145791,None,971.1145791,None,sub-07,06/10/2001,1: Male,21/09/2023,001,1: right,2023_Sep_21_1802,[FINAL]_fmri_multiplication,2021.2.3,60.03561168403355
block3.xlsx,,,,,,,,,,,,,,0,2,2,2,,,,,11,0,11,0,,,,,,,,,,,,,,,,,,,,,,,,,,,,,,,,,,,,,,972.1139957770001,None,972.1139957770001,None,sub-07,06/10/2001,1: Male,21/09/2023,001,1: right,2023_Sep_21_1802,[FINAL]_fmri_multiplication,2021.2.3,60.03561168403355
block3.xlsx,,,,,,,,,,,,,,0,2,2,2,,,,,12,0,12,0,,,,,,,,,,,,,,,,,,,,,,,,,,,,,,,,,,,,,,973.1140153,None,973.1140153,None,sub-07,06/10/2001,1: Male,21/09/2023,001,1: right,2023_Sep_21_1802,[FINAL]_fmri_multiplication,2021.2.3,60.03561168403355
block3.xlsx,,,,,,,,,,,,,,0,2,2,2,,,,,13,0,13,0,,,,,,,,,,,,,,,,,,,,,,,,,,,,,,,,,,,,,,974.1152960069999,None,974.1152960069999,None,sub-07,06/10/2001,1: Male,21/09/2023,001,1: right,2023_Sep_21_1802,[FINAL]_fmri_multiplication,2021.2.3,60.03561168403355
block3.xlsx,,,,,,,,,,,,,,0,2,2,2,,,,,14,0,14,0,,,,,,,,,,,,,,,,,,,,,,,,,,,,,,,,,,,,,,975.1126640779999,None,975.1126640779999,None,sub-07,06/10/2001,1: Male,21/09/2023,001,1: right,2023_Sep_21_1802,[FINAL]_fmri_multiplication,2021.2.3,60.03561168403355
block3.xlsx,,,,,,,,,,,,,,0,2,2,2,,,,,15,0,15,0,,,,,,,,,,,,,,,,,,,,,,,,,,,,,,,,,,,,,,976.1152561459999,None,976.1152561459999,None,sub-07,06/10/2001,1: Male,21/09/2023,001,1: right,2023_Sep_21_1802,[FINAL]_fmri_multiplication,2021.2.3,60.03561168403355
block3.xlsx,,,,,,,,,,,,,,0,2,2,2,,,,,16,0,16,0,,,,,,,,,,,,,,,,,,,,,,,,,,,,,,,,,,,,,,977.1146804529999,None,977.1146804529999,None,sub-07,06/10/2001,1: Male,21/09/2023,001,1: right,2023_Sep_21_1802,[FINAL]_fmri_multiplication,2021.2.3,60.03561168403355
block3.xlsx,,,,,,,,,,,,,,0,2,2,2,,,,,17,0,17,0,,,,,,,,,,,,,,,,,,,,,,,,,,,,,,,,,,,,,,978.1151434499998,None,978.1151434499998,None,sub-07,06/10/2001,1: Male,21/09/2023,001,1: right,2023_Sep_21_1802,[FINAL]_fmri_multiplication,2021.2.3,60.03561168403355
block3.xlsx,,,,,,,,,,,,,,0,2,2,2,,,,,18,0,18,0,,,,,,,,,,,,,,,,,,,,,,,,,,,,,,,,,,,,,,979.1142985430001,None,979.1142985430001,None,sub-07,06/10/2001,1: Male,21/09/2023,001,1: right,2023_Sep_21_1802,[FINAL]_fmri_multiplication,2021.2.3,60.03561168403355
block3.xlsx,,,,,,,,,,,,,,0,2,2,2,,,,,19,0,19,0,,,,,,,,,,,,,,,,,,,,,,,,,,,,,,,,,,,,,,980.1144458,None,980.1144458,None,sub-07,06/10/2001,1: Male,21/09/2023,001,1: right,2023_Sep_21_1802,[FINAL]_fmri_multiplication,2021.2.3,60.03561168403355
block3.xlsx,,,,,,,,,,,,,,0,2,2,2,,,,,20,0,20,0,,,,,,,,,,,,,,,,,,,,,,,,,,,,,,,,,,,,,,981.1148602499998,None,981.1148602499998,None,sub-07,06/10/2001,1: Male,21/09/2023,001,1: right,2023_Sep_21_1802,[FINAL]_fmri_multiplication,2021.2.3,60.03561168403355
block3.xlsx,,,,,,,,,,,,,,0,2,2,2,,,,,21,0,21,0,,,,,,,,,,,,,,,,,,,,,,,,,,,,,,,,,,,,,,982.1141194,None,982.1141194,None,sub-07,06/10/2001,1: Male,21/09/2023,001,1: right,2023_Sep_21_1802,[FINAL]_fmri_multiplication,2021.2.3,60.03561168403355
block3.xlsx,,,,,,,,,,,,,,0,2,2,2,,,,,22,0,22,0,,,,,,,,,,,,,,,,,,,,,,,,,,,,,,,,,,,,,,983.1141108050001,None,983.1141108050001,None,sub-07,06/10/2001,1: Male,21/09/2023,001,1: right,2023_Sep_21_1802,[FINAL]_fmri_multiplication,2021.2.3,60.03561168403355
block3.xlsx,,,,,,,,,,,,,,0,2,2,2,,,,,23,0,23,0,,,,,,,,,,,,,,,,,,,,,,,,,,,,,,,,,,,,,,984.1147448,None,984.1147448,None,sub-07,06/10/2001,1: Male,21/09/2023,001,1: right,2023_Sep_21_1802,[FINAL]_fmri_multiplication,2021.2.3,60.03561168403355
block3.xlsx,,,,,,,,,,,,,,0,2,2,2,,,,,24,0,24,0,,,,,,,,,,,,,,,,,,,,,,,,,,,,,,,,,,,,,,985.1140301219998,None,985.1140301219998,None,sub-07,06/10/2001,1: Male,21/09/2023,001,1: right,2023_Sep_21_1802,[FINAL]_fmri_multiplication,2021.2.3,60.03561168403355
block3.xlsx,,,,,,,,,,,,,,0,2,2,2,,,,,25,0,25,0,,,,,,,,,,,,,,,,,,,,,,,,,,,,,,,,,,,,,,986.1147486,None,986.1147486,None,sub-07,06/10/2001,1: Male,21/09/2023,001,1: right,2023_Sep_21_1802,[FINAL]_fmri_multiplication,2021.2.3,60.03561168403355
block3.xlsx,,,,,,,,,,,,,,0,2,2,2,,,,,26,0,26,0,,,,,,,,,,,,,,,,,,,,,,,,,,,,,,,,,,,,,,987.1143176,None,987.1143176,None,sub-07,06/10/2001,1: Male,21/09/2023,001,1: right,2023_Sep_21_1802,[FINAL]_fmri_multiplication,2021.2.3,60.03561168403355
block3.xlsx,,,,,,,,,,,,,,0,2,2,2,,,,,27,0,27,0,,,,,,,,,,,,,,,,,,,,,,,,,,,,,,,,,,,,,,988.1155233270001,None,988.1155233270001,None,sub-07,06/10/2001,1: Male,21/09/2023,001,1: right,2023_Sep_21_1802,[FINAL]_fmri_multiplication,2021.2.3,60.03561168403355
block3.xlsx,,,,,,,,,,,,,,0,2,2,2,,,,,28,0,28,0,,,,,,,,,,,,,,,,,,,,,,,,,,,,,,,,,,,,,,989.1141765269999,None,989.1141765269999,None,sub-07,06/10/2001,1: Male,21/09/2023,001,1: right,2023_Sep_21_1802,[FINAL]_fmri_multiplication,2021.2.3,60.03561168403355
block3.xlsx,,,,,,,,,,,,,,0,2,2,2,,,,,29,0,29,0,,,,,,,,,,,,,,,,,,,,,,,,,,,,,,,,,,,,,,990.1163481089998,None,990.1163481089998,None,sub-07,06/10/2001,1: Male,21/09/2023,001,1: right,2023_Sep_21_1802,[FINAL]_fmri_multiplication,2021.2.3,60.03561168403355
block3.xlsx,,,,,,,,,,,,,,0,2,2,2,,,,,,,,,,,,,,,,,,,,,,,,,,,,,,,,,,,,,,,,,,,,,,,,,,sub-07,06/10/2001,1: Male,21/09/2023,001,1: right,2023_Sep_21_1802,[FINAL]_fmri_multiplication,2021.2.3,60.03561168403355
block4.xlsx,10,7.5,8.4,5 x 6,36,14,5 x 6 = 36,large-sized_low-interference,large-sized,low-interference,6,IncorrectRESP,d,0,3,3,3,0,0,0,0,,,,,,,,,,,,,991.1159157349998,None,1001.1382549099999,None,1001.615246,None,1003.6142834279999,None,1004.364765,None,1004.6142123189998,None,1004.6142123189998,None,a,0,1.1656497019998824,1004.6142123189998,None,1005.7973317380001,None,1005.7973317380001,None,d,0.30238553900016996,1005.7973317380001,None,1006.1307621219999,None,,,,,sub-07,06/10/2001,1: Male,21/09/2023,001,1: right,2023_Sep_21_1802,[FINAL]_fmri_multiplication,2021.2.3,60.03561168403355
block4.xlsx,25.9,7.5,2.6,6 x 2,12,6,6 x 2 = 12,small-sized_low-interference,small-sized,low-interference,3,CorrectRESP,a,0,3,3,3,0,1,1,1,,,,,,,,,,,,,,,1014.5308867449999,None,1015.0306950029999,None,1017.0303553069998,None,1017.7805059060001,None,1018.0311459519999,None,1018.0311459519999,None,d,0,0.5886703840001246,1018.0311459519999,None,1018.6472840669999,None,1018.6472840669999,None,d,0.22845811500019408,1018.6472840669999,None,1018.8969686740002,None,,,,,sub-07,06/10/2001,1: Male,21/09/2023,001,1: right,2023_Sep_21_1802,[FINAL]_fmri_multiplication,2021.2.3,60.03561168403355
block4.xlsx,36,7.5,3.8,8 x 4,32,24,8 x 4 = 32,large-sized_high-interference,large-sized,high-interference,25,CorrectRESP,a,0,3,3,3,0,2,2,2,,,,,,,,,,,,,,,1021.496926,None,1021.9971518459997,None,1023.997509,None,1024.746889,None,1024.996878,None,1024.996878,None,d,0,0.68682893,1024.996878,None,1025.71397,None,1025.71397,None,d,0.1938425640000787,1025.71397,None,1025.930422,None,,,,,sub-07,06/10/2001,1: Male,21/09/2023,001,1: right,2023_Sep_21_1802,[FINAL]_fmri_multiplication,2021.2.3,60.03561168403355
block4.xlsx,47.3,7.5,3.8,9 x 5,40,15,9 x 5 = 40,large-sized_low-interference,large-sized,low-interference,6,IncorrectRESP,d,0,3,3,3,0,3,3,3,,,,,,,,,,,,,,,1029.731168,None,1030.2324676580001,None,1032.247842,None,1032.997887,None,1033.249129,None,1033.249129,None,a,0,0.7707119980000243,1033.249129,None,1034.0474167769999,None,1034.0474167769999,None,d,0.23629399099991133,1034.0474167769999,None,1034.31464,None,,,,,sub-07,06/10/2001,1: Male,21/09/2023,001,1: right,2023_Sep_21_1802,[FINAL]_fmri_multiplication,2021.2.3,60.03561168403355
block4.xlsx,58.6,7.5,4.4,6 x 3,18,7,6 x 3 = 18,small-sized_high-interference,small-sized,high-interference,8,CorrectRESP,a,0,3,3,3,0,4,4,4,,,,,,,,,,,,,,,1038.1145792829998,None,1038.614131,None,1040.6143373609998,None,1041.364085,None,1041.6138838289999,None,1041.6138838289999,None,d,0,0.9258485760001349,1041.6138838289999,None,1042.563602,None,1042.563602,None,d,0.20020995699997002,1042.563602,None,1042.7804615139999,None,,,,,sub-07,06/10/2001,1: Male,21/09/2023,001,1: right,2023_Sep_21_1802,[FINAL]_fmri_multiplication,2021.2.3,60.03561168403355
block4.xlsx,70.5,7.5,2.6,4 x 9,32,20,4 x 9 = 32,large-sized_high-interference,large-sized,high-interference,9,IncorrectRESP,d,0,3,3,3,0,5,5,5,,,,,,,,,,,,,,,1047.1803085759998,None,1047.6806452739997,None,1049.6807694640002,None,1050.4306886069999,None,1050.6804550860002,None,1050.6804550860002,None,a,0,0.7792892729999039,1050.6804550860002,None,1051.480272,None,1051.480272,None,d,0.2674614120001024,1051.480272,None,1051.7807824689999,None,,,,,sub-07,06/10/2001,1: Male,21/09/2023,001,1: right,2023_Sep_21_1802,[FINAL]_fmri_multiplication,2021.2.3,60.03561168403355
block4.xlsx,80.6,7.5,9.4,3 x 4,15,9,3 x 4 = 15,small-sized_high-interference,small-sized,high-interference,10,IncorrectRESP,d,0,3,3,3,0,6,6,6,,,,,,,,,,,,,,,1054.380348,None,1054.8808133409998,None,1056.8807856089998,None,1057.6304554079998,None,1057.8809684889998,None,1057.8809684889998,None,a,0,1.2027399150001656,1057.8809684889998,None,1059.113758,None,1059.113758,None,d,0.3300666350000938,1059.113758,None,1059.463599,None,,,,,sub-07,06/10/2001,1: Male,21/09/2023,001,1: right,2023_Sep_21_1802,[FINAL]_fmri_multiplication,2021.2.3,60.03561168403355
block4.xlsx,97.5,7.5,6,6 x 6,36,13,6 x 6 = 36,large-sized_low-interference,large-sized,low-interference,4,CorrectRESP,a,0,3,3,3,0,7,7,7,,,,,,,,,,,,,,,1068.864401,None,1069.3642943569998,None,1071.364427,None,1072.1145033940002,None,1072.3645360189998,None,1072.3645360189998,None,d,0,0.8232114830002502,1072.3645360189998,None,1073.2142647350001,None,1073.2142647350001,None,d,0.19766671100023814,1073.2142647350001,None,1073.43043,None,,,,,sub-07,06/10/2001,1: Male,21/09/2023,001,1: right,2023_Sep_21_1802,[FINAL]_fmri_multiplication,2021.2.3,60.03561168403355
block4.xlsx,111,7.5,5.8,7 x 6,42,23,7 x 6 = 42,large-sized_high-interference,large-sized,high-interference,22,CorrectRESP,a,0,3,3,3,0,8,8,8,,,,,,,,,,,,,,,1079.4302669109998,None,1079.9306843489999,None,1081.9306930960001,None,1082.6807186709998,None,1082.93105,None,1082.93105,None,d,0,0.7447056519999933,1082.93105,None,1083.69697,None,1083.69697,None,d,0.19479076200013878,1083.69697,None,1083.913623,None,,,,,sub-07,06/10/2001,1: Male,21/09/2023,001,1: right,2023_Sep_21_1802,[FINAL]_fmri_multiplication,2021.2.3,60.03561168403355
block4.xlsx,124.3,7.5,3.6,6 x 4,28,10,6 x 4 = 28,small-sized_high-interference,small-sized,high-interference,12,IncorrectRESP,d,0,3,3,3,0,9,9,9,,,,,,,,,,,,,,,1089.713625,None,1090.214139,None,1092.2135107499998,None,1092.9641003000002,None,1093.213563,None,1093.213563,None,a,0,1.0782476150002367,1093.213563,None,1094.314123,None,1094.314123,None,d,0.4016113200000291,1094.314123,None,1094.7472244770001,None,,,,,sub-07,06/10/2001,1: Male,21/09/2023,001,1: right,2023_Sep_21_1802,[FINAL]_fmri_multiplication,2021.2.3,60.03561168403355
block4.xlsx,135.4,7.5,9.3,5 x 5,30,3,5 x 5 = 30,small-sized_low-interference,small-sized,low-interference,3,IncorrectRESP,d,0,3,3,3,0,10,10,10,,,,,,,,,,,,,,,1098.346774,None,1098.847602,None,1100.8476717969997,None,1101.59794,None,1101.8482115369998,None,1101.8482115369998,None,a,0,0.8435893739997482,1101.8482115369998,None,1102.714129,None,1102.714129,None,d,0.21757477299979655,1102.714129,None,1102.964387,None,,,,,sub-07,06/10/2001,1: Male,21/09/2023,001,1: right,2023_Sep_21_1802,[FINAL]_fmri_multiplication,2021.2.3,60.03561168403355
block4.xlsx,152.2,7.5,9.8,7 x 3,21,11,7 x 3 = 21,small-sized_high-interference,small-sized,high-interference,13,CorrectRESP,a,0,3,3,3,0,11,11,11,,,,,,,,,,,,,,,1112.2647257499998,None,1112.779551,None,1114.7809007380001,None,1115.530772,None,1115.7806360979998,None,1115.7806360979998,None,d,0,0.7832100450000326,1115.7806360979998,None,1116.5805504720001,None,1116.5805504720001,None,d,0.23124235799969028,1116.5805504720001,None,1116.830202,None,,,,,sub-07,06/10/2001,1: Male,21/09/2023,001,1: right,2023_Sep_21_1802,[FINAL]_fmri_multiplication,2021.2.3,60.03561168403355
block4.xlsx,169.5,7.5,12.8,9 x 9,72,16,9 x 9 = 72,large-sized_low-interference,large-sized,low-interference,6,IncorrectRESP,d,0,3,3,3,0,12,12,12,,,,,,,,,,,,,,,1126.630343,None,1127.1305218920002,None,1129.1299125340001,None,1129.880368,None,1130.130904,None,1130.130904,None,a,0,1.0088036540000758,1130.130904,None,1131.164117,None,1131.164117,None,d,0.3115838460003033,1131.164117,None,1131.497104,None,,,,,sub-07,06/10/2001,1: Male,21/09/2023,001,1: right,2023_Sep_21_1802,[FINAL]_fmri_multiplication,2021.2.3,60.03561168403355
block4.xlsx,189.8,7.5,8.9,4 x 4,20,4,4 x 4 = 20,small-sized_low-interference,small-sized,low-interference,5,IncorrectRESP,d,0,3,3,3,0,13,13,13,,,,,,,,,,,,,,,1144.297676,None,1144.797276,None,1146.7974482250002,None,1147.5465505460002,None,1147.797713,None,1147.797713,None,a,0,0.8220962209998106,1147.797713,None,1148.647269,None,1148.647269,None,d,0.27644966400021076,1148.647269,None,1148.946953,None,,,,,sub-07,06/10/2001,1: Male,21/09/2023,001,1: right,2023_Sep_21_1802,[FINAL]_fmri_multiplication,2021.2.3,60.03561168403355
block4.xlsx,206.2,7.5,2.4,5 x 8,45,21,5 x 8 = 45,large-sized_high-interference,large-sized,high-interference,9,IncorrectRESP,d,0,3,3,3,0,14,14,14,,,,,,,,,,,,,,,1157.8454963189997,None,1158.346597,None,1160.3473130309999,None,1161.0974048530002,None,1161.3479170689998,None,1161.3479170689998,None,a,0,1.415771808000045,1161.3479170689998,None,1162.7806964309998,None,1162.7806964309998,None,d,0.4391474419999213,1162.7806964309998,None,1163.2467958009997,None,,,,,sub-07,06/10/2001,1: Male,21/09/2023,001,1: right,2023_Sep_21_1802,[FINAL]_fmri_multiplication,2021.2.3,60.03561168403355
block4.xlsx,216.1,7.5,14,8 x 2,16,5,8 x 2 = 16,small-sized_low-interference,small-sized,low-interference,7,CorrectRESP,a,0,3,3,3,0,15,15,15,,,,,,,,,,,,,,,1165.6472435179999,None,1166.1468280609997,None,1168.147594,None,1168.897769,None,1169.1480204099998,None,1169.1480204099998,None,d,0,0.6638281760001519,1169.1480204099998,None,1169.8305886449998,None,1169.8305886449998,None,d,0.24514851000003546,1169.8305886449998,None,1170.097475,None,,,,,sub-07,06/10/2001,1: Male,21/09/2023,001,1: right,2023_Sep_21_1802,[FINAL]_fmri_multiplication,2021.2.3,60.03561168403355
block4.xlsx,237.6,7.5,5.2,7 x 5,35,17,7 x 5 = 35,large-sized_low-interference,large-sized,low-interference,7,CorrectRESP,a,0,3,3,3,0,16,16,16,,,,,,,,,,,,,,,1184.0974566720001,None,1184.5971236770001,None,1186.597415,None,1187.347429,None,1187.5969315090001,None,1187.5969315090001,None,d,0,0.8387802870001906,1187.5969315090001,None,1188.4637019789998,None,1188.4637019789998,None,d,0.2520272649999242,1188.4637019789998,None,1188.746899,None,,,,,sub-07,06/10/2001,1: Male,21/09/2023,001,1: right,2023_Sep_21_1802,[FINAL]_fmri_multiplication,2021.2.3,60.03561168403355
block4.xlsx,250.3,7.5,9.6,8 x 7,63,22,8 x 7 = 63,large-sized_high-interference,large-sized,high-interference,9,IncorrectRESP,d,0,3,3,3,0,17,17,17,,,,,,,,,,,,,,,1193.9467999580002,None,1194.4475965359998,None,1196.447504,None,1197.197218,None,1197.448283,None,1197.448283,None,a,0,1.3955188049999379,1197.448283,None,1198.8641237880001,None,1198.8641237880001,None,d,0.45960816500019064,1198.8641237880001,None,1199.3468737419998,None,,,,,sub-07,06/10/2001,1: Male,21/09/2023,001,1: right,2023_Sep_21_1802,[FINAL]_fmri_multiplication,2021.2.3,60.03561168403355
block4.xlsx,267.4,7.5,2.6,2 x 9,16,2,2 x 9 = 16,small-sized_low-interference,small-sized,low-interference,7,IncorrectRESP,d,0,3,3,3,0,18,18,18,,,,,,,,,,,,,,,1208.9449176479998,None,1209.447914,None,1211.4478771939998,None,1212.197884,None,1212.448162,None,1212.448162,None,d,1,1.1556574569999611,1212.448162,None,1213.631167,None,1213.631167,None,d,0.49256461999993917,1213.631167,None,1214.147055,None,,,,,sub-07,06/10/2001,1: Male,21/09/2023,001,1: right,2023_Sep_21_1802,[FINAL]_fmri_multiplication,2021.2.3,60.03561168403355
block4.xlsx,277.5,7.5,2.3,9 x 3,27,19,9 x 3 = 27,large-sized_high-interference,large-sized,high-interference,9,CorrectRESP,a,0,3,3,3,0,19,19,19,,,,,,,,,,,,,,,1216.747623,None,1217.2459780059999,None,1219.2475274109997,None,1219.9976249380002,None,1220.2476225199998,None,1220.2476225199998,None,a,1,1.8200721309999608,1220.2476225199998,None,1222.0974012699999,None,1222.0974012699999,None,d,0.31440516799966645,1222.0974012699999,None,1222.430233,None,,,,,sub-07,06/10/2001,1: Male,21/09/2023,001,1: right,2023_Sep_21_1802,[FINAL]_fmri_multiplication,2021.2.3,60.03561168403355
block4.xlsx,287.3,7.5,3.1,4 x 5,16,8,4 x 5 = 16,small-sized_high-interference,small-sized,high-interference,8,IncorrectRESP,d,0,3,3,3,0,20,20,20,,,,,,,,,,,,,,,1224.7309913099998,None,1225.230701,None,1227.230669,None,1227.980307,None,1228.230482,None,1228.230482,None,a,0,1.261277378000159,1228.230482,None,1229.513589,None,1229.513589,None,d,0.44222153200007597,1229.513589,None,1229.980583,None,,,,,sub-07,06/10/2001,1: Male,21/09/2023,001,1: right,2023_Sep_21_1802,[FINAL]_fmri_multiplication,2021.2.3,60.03561168403355
block4.xlsx,297.9,7.5,2.7,7 x 7,49,18,7 x 7 = 49,large-sized_low-interference,large-sized,low-interference,7,CorrectRESP,a,0,3,3,3,0,21,21,21,,,,,,,,,,,,,,,1233.0806633419998,None,1233.580318,None,1235.5805938620001,None,1236.330547,None,1236.579788,None,1236.579788,None,d,0,1.2239100560000225,1236.579788,None,1237.8302678270002,None,1237.8302678270002,None,d,0.3014689689998704,1237.8302678270002,None,1238.1642655259998,None,,,,,sub-07,06/10/2001,1: Male,21/09/2023,001,1: right,2023_Sep_21_1802,[FINAL]_fmri_multiplication,2021.2.3,60.03561168403355
block4.xlsx,308.1,7.5,4.8,7 x 2,14,1,7 x 2 = 14,small-sized_low-interference,small-sized,low-interference,4,CorrectRESP,a,0,3,3,3,0,22,22,22,,,,,,,,,,,,,,,1240.8788845109998,None,1241.381047,None,1243.3813045759998,None,1244.1314106529999,None,1244.3814108809997,None,1244.3814108809997,None,d,0,0.7903796979999242,1244.3814108809997,None,1245.1971605459999,None,1245.1971605459999,None,d,0.2546706620000805,1245.1971605459999,None,1245.4812222679998,None,,,,,sub-07,06/10/2001,1: Male,21/09/2023,001,1: right,2023_Sep_21_1802,[FINAL]_fmri_multiplication,2021.2.3,60.03561168403355
block4.xlsx,320.4,7.5,7.1,3 x 8,24,12,3 x 8 = 24,small-sized_high-interference,small-sized,high-interference,13,CorrectRESP,a,0,3,3,3,0,23,23,23,,,,,,,,,,,,,,,1250.280964,None,1250.780806,None,1252.7808940969999,None,1253.530862,None,1253.7806194629998,None,1253.7806194629998,None,a,1,1.743110513999909,1253.7806194629998,None,1255.546963,None,1255.546963,None,d,0.3687724380001782,1255.546963,None,1255.947371,None,,,,,sub-07,06/10/2001,1: Male,21/09/2023,001,1: right,2023_Sep_21_1802,[FINAL]_fmri_multiplication,2021.2.3,60.03561168403355
block4.xlsx,,,,,,,,,,,,,,0,3,3,3,,,,,0,0,0,0,,,,,,,,,,,,,,,,,,,,,,,,,,,,,,,,,,,,,,1263.0489689319998,None,1263.0489689319998,None,sub-07,06/10/2001,1: Male,21/09/2023,001,1: right,2023_Sep_21_1802,[FINAL]_fmri_multiplication,2021.2.3,60.03561168403355
block4.xlsx,,,,,,,,,,,,,,0,3,3,3,,,,,1,0,1,0,,,,,,,,,,,,,,,,,,,,,,,,,,,,,,,,,,,,,,1264.0640323789999,None,1264.0640323789999,None,sub-07,06/10/2001,1: Male,21/09/2023,001,1: right,2023_Sep_21_1802,[FINAL]_fmri_multiplication,2021.2.3,60.03561168403355
block4.xlsx,,,,,,,,,,,,,,0,3,3,3,,,,,2,0,2,0,,,,,,,,,,,,,,,,,,,,,,,,,,,,,,,,,,,,,,1265.0640896310001,None,1265.0640896310001,None,sub-07,06/10/2001,1: Male,21/09/2023,001,1: right,2023_Sep_21_1802,[FINAL]_fmri_multiplication,2021.2.3,60.03561168403355
block4.xlsx,,,,,,,,,,,,,,0,3,3,3,,,,,3,0,3,0,,,,,,,,,,,,,,,,,,,,,,,,,,,,,,,,,,,,,,1266.0637848669999,None,1266.0637848669999,None,sub-07,06/10/2001,1: Male,21/09/2023,001,1: right,2023_Sep_21_1802,[FINAL]_fmri_multiplication,2021.2.3,60.03561168403355
block4.xlsx,,,,,,,,,,,,,,0,3,3,3,,,,,4,0,4,0,,,,,,,,,,,,,,,,,,,,,,,,,,,,,,,,,,,,,,1267.064635,None,1267.064635,None,sub-07,06/10/2001,1: Male,21/09/2023,001,1: right,2023_Sep_21_1802,[FINAL]_fmri_multiplication,2021.2.3,60.03561168403355
block4.xlsx,,,,,,,,,,,,,,0,3,3,3,,,,,5,0,5,0,,,,,,,,,,,,,,,,,,,,,,,,,,,,,,,,,,,,,,1268.0642927210001,None,1268.0642927210001,None,sub-07,06/10/2001,1: Male,21/09/2023,001,1: right,2023_Sep_21_1802,[FINAL]_fmri_multiplication,2021.2.3,60.03561168403355
block4.xlsx,,,,,,,,,,,,,,0,3,3,3,,,,,6,0,6,0,,,,,,,,,,,,,,,,,,,,,,,,,,,,,,,,,,,,,,1269.0642669089998,None,1269.0642669089998,None,sub-07,06/10/2001,1: Male,21/09/2023,001,1: right,2023_Sep_21_1802,[FINAL]_fmri_multiplication,2021.2.3,60.03561168403355
block4.xlsx,,,,,,,,,,,,,,0,3,3,3,,,,,7,0,7,0,,,,,,,,,,,,,,,,,,,,,,,,,,,,,,,,,,,,,,1270.065226,None,1270.065226,None,sub-07,06/10/2001,1: Male,21/09/2023,001,1: right,2023_Sep_21_1802,[FINAL]_fmri_multiplication,2021.2.3,60.03561168403355
block4.xlsx,,,,,,,,,,,,,,0,3,3,3,,,,,8,0,8,0,,,,,,,,,,,,,,,,,,,,,,,,,,,,,,,,,,,,,,1271.064769,None,1271.064769,None,sub-07,06/10/2001,1: Male,21/09/2023,001,1: right,2023_Sep_21_1802,[FINAL]_fmri_multiplication,2021.2.3,60.03561168403355
block4.xlsx,,,,,,,,,,,,,,0,3,3,3,,,,,9,0,9,0,,,,,,,,,,,,,,,,,,,,,,,,,,,,,,,,,,,,,,1272.0667376430001,None,1272.0667376430001,None,sub-07,06/10/2001,1: Male,21/09/2023,001,1: right,2023_Sep_21_1802,[FINAL]_fmri_multiplication,2021.2.3,60.03561168403355
block4.xlsx,,,,,,,,,,,,,,0,3,3,3,,,,,10,0,10,0,,,,,,,,,,,,,,,,,,,,,,,,,,,,,,,,,,,,,,1273.064804,None,1273.064804,None,sub-07,06/10/2001,1: Male,21/09/2023,001,1: right,2023_Sep_21_1802,[FINAL]_fmri_multiplication,2021.2.3,60.03561168403355
block4.xlsx,,,,,,,,,,,,,,0,3,3,3,,,,,11,0,11,0,,,,,,,,,,,,,,,,,,,,,,,,,,,,,,,,,,,,,,1274.0666287079998,None,1274.0666287079998,None,sub-07,06/10/2001,1: Male,21/09/2023,001,1: right,2023_Sep_21_1802,[FINAL]_fmri_multiplication,2021.2.3,60.03561168403355
block4.xlsx,,,,,,,,,,,,,,0,3,3,3,,,,,12,0,12,0,,,,,,,,,,,,,,,,,,,,,,,,,,,,,,,,,,,,,,1275.0648418249998,None,1275.0648418249998,None,sub-07,06/10/2001,1: Male,21/09/2023,001,1: right,2023_Sep_21_1802,[FINAL]_fmri_multiplication,2021.2.3,60.03561168403355
block4.xlsx,,,,,,,,,,,,,,0,3,3,3,,,,,13,0,13,0,,,,,,,,,,,,,,,,,,,,,,,,,,,,,,,,,,,,,,1276.0616716509999,None,1276.0616716509999,None,sub-07,06/10/2001,1: Male,21/09/2023,001,1: right,2023_Sep_21_1802,[FINAL]_fmri_multiplication,2021.2.3,60.03561168403355
block4.xlsx,,,,,,,,,,,,,,0,3,3,3,,,,,14,0,14,0,,,,,,,,,,,,,,,,,,,,,,,,,,,,,,,,,,,,,,1277.065323,None,1277.065323,None,sub-07,06/10/2001,1: Male,21/09/2023,001,1: right,2023_Sep_21_1802,[FINAL]_fmri_multiplication,2021.2.3,60.03561168403355
block4.xlsx,,,,,,,,,,,,,,0,3,3,3,,,,,15,0,15,0,,,,,,,,,,,,,,,,,,,,,,,,,,,,,,,,,,,,,,1278.0650893920001,None,1278.0650893920001,None,sub-07,06/10/2001,1: Male,21/09/2023,001,1: right,2023_Sep_21_1802,[FINAL]_fmri_multiplication,2021.2.3,60.03561168403355
block4.xlsx,,,,,,,,,,,,,,0,3,3,3,,,,,16,0,16,0,,,,,,,,,,,,,,,,,,,,,,,,,,,,,,,,,,,,,,1279.064735,None,1279.064735,None,sub-07,06/10/2001,1: Male,21/09/2023,001,1: right,2023_Sep_21_1802,[FINAL]_fmri_multiplication,2021.2.3,60.03561168403355
block4.xlsx,,,,,,,,,,,,,,0,3,3,3,,,,,17,0,17,0,,,,,,,,,,,,,,,,,,,,,,,,,,,,,,,,,,,,,,1280.0651924479998,None,1280.0651924479998,None,sub-07,06/10/2001,1: Male,21/09/2023,001,1: right,2023_Sep_21_1802,[FINAL]_fmri_multiplication,2021.2.3,60.03561168403355
block4.xlsx,,,,,,,,,,,,,,0,3,3,3,,,,,18,0,18,0,,,,,,,,,,,,,,,,,,,,,,,,,,,,,,,,,,,,,,1281.0652797120001,None,1281.0652797120001,None,sub-07,06/10/2001,1: Male,21/09/2023,001,1: right,2023_Sep_21_1802,[FINAL]_fmri_multiplication,2021.2.3,60.03561168403355
block4.xlsx,,,,,,,,,,,,,,0,3,3,3,,,,,19,0,19,0,,,,,,,,,,,,,,,,,,,,,,,,,,,,,,,,,,,,,,1282.0671604139998,None,1282.0671604139998,None,sub-07,06/10/2001,1: Male,21/09/2023,001,1: right,2023_Sep_21_1802,[FINAL]_fmri_multiplication,2021.2.3,60.03561168403355
block4.xlsx,,,,,,,,,,,,,,0,3,3,3,,,,,20,0,20,0,,,,,,,,,,,,,,,,,,,,,,,,,,,,,,,,,,,,,,1283.065162,None,1283.065162,None,sub-07,06/10/2001,1: Male,21/09/2023,001,1: right,2023_Sep_21_1802,[FINAL]_fmri_multiplication,2021.2.3,60.03561168403355
block4.xlsx,,,,,,,,,,,,,,0,3,3,3,,,,,21,0,21,0,,,,,,,,,,,,,,,,,,,,,,,,,,,,,,,,,,,,,,1284.0653860469997,None,1284.0653860469997,None,sub-07,06/10/2001,1: Male,21/09/2023,001,1: right,2023_Sep_21_1802,[FINAL]_fmri_multiplication,2021.2.3,60.03561168403355
block4.xlsx,,,,,,,,,,,,,,0,3,3,3,,,,,22,0,22,0,,,,,,,,,,,,,,,,,,,,,,,,,,,,,,,,,,,,,,1285.0648306019998,None,1285.0648306019998,None,sub-07,06/10/2001,1: Male,21/09/2023,001,1: right,2023_Sep_21_1802,[FINAL]_fmri_multiplication,2021.2.3,60.03561168403355
block4.xlsx,,,,,,,,,,,,,,0,3,3,3,,,,,23,0,23,0,,,,,,,,,,,,,,,,,,,,,,,,,,,,,,,,,,,,,,1286.063886,None,1286.063886,None,sub-07,06/10/2001,1: Male,21/09/2023,001,1: right,2023_Sep_21_1802,[FINAL]_fmri_multiplication,2021.2.3,60.03561168403355
block4.xlsx,,,,,,,,,,,,,,0,3,3,3,,,,,24,0,24,0,,,,,,,,,,,,,,,,,,,,,,,,,,,,,,,,,,,,,,1287.0641540339998,None,1287.0641540339998,None,sub-07,06/10/2001,1: Male,21/09/2023,001,1: right,2023_Sep_21_1802,[FINAL]_fmri_multiplication,2021.2.3,60.03561168403355
block4.xlsx,,,,,,,,,,,,,,0,3,3,3,,,,,25,0,25,0,,,,,,,,,,,,,,,,,,,,,,,,,,,,,,,,,,,,,,1288.064203,None,1288.064203,None,sub-07,06/10/2001,1: Male,21/09/2023,001,1: right,2023_Sep_21_1802,[FINAL]_fmri_multiplication,2021.2.3,60.03561168403355
block4.xlsx,,,,,,,,,,,,,,0,3,3,3,,,,,26,0,26,0,,,,,,,,,,,,,,,,,,,,,,,,,,,,,,,,,,,,,,1289.0639238039998,None,1289.0639238039998,None,sub-07,06/10/2001,1: Male,21/09/2023,001,1: right,2023_Sep_21_1802,[FINAL]_fmri_multiplication,2021.2.3,60.03561168403355
block4.xlsx,,,,,,,,,,,,,,0,3,3,3,,,,,27,0,27,0,,,,,,,,,,,,,,,,,,,,,,,,,,,,,,,,,,,,,,1290.0642831239998,None,1290.0642831239998,None,sub-07,06/10/2001,1: Male,21/09/2023,001,1: right,2023_Sep_21_1802,[FINAL]_fmri_multiplication,2021.2.3,60.03561168403355
block4.xlsx,,,,,,,,,,,,,,0,3,3,3,,,,,28,0,28,0,,,,,,,,,,,,,,,,,,,,,,,,,,,,,,,,,,,,,,1291.0646634969999,None,1291.0646634969999,None,sub-07,06/10/2001,1: Male,21/09/2023,001,1: right,2023_Sep_21_1802,[FINAL]_fmri_multiplication,2021.2.3,60.03561168403355
block4.xlsx,,,,,,,,,,,,,,0,3,3,3,,,,,29,0,29,0,,,,,,,,,,,,,,,,,,,,,,,,,,,,,,,,,,,,,,1292.064227,None,1292.064227,None,sub-07,06/10/2001,1: Male,21/09/2023,001,1: right,2023_Sep_21_1802,[FINAL]_fmri_multiplication,2021.2.3,60.03561168403355
block4.xlsx,,,,,,,,,,,,,,0,3,3,3,,,,,,,,,,,,,,,,,,,,,,,,,,,,,,,,,,,,,,,,,,,,,,,,,,sub-07,06/10/2001,1: Male,21/09/2023,001,1: right,2023_Sep_21_1802,[FINAL]_fmri_multiplication,2021.2.3,60.03561168403355