blocks_file,start,dur,rest,mult_problemB,mult_options,stim_trial,mult_stim,type,ProblemSize,InterferenceLH,InterferenceLevel,mult_type,corrRESP,blocks_set.thisRepN,blocks_set.thisTrialN,blocks_set.thisN,blocks_set.thisIndex,TRIALS.thisRepN,TRIALS.thisTrialN,TRIALS.thisN,TRIALS.thisIndex,timer_loop.thisRepN,timer_loop.thisTrialN,timer_loop.thisN,timer_loop.thisIndex,WAIT_TEXT.started,WAIT_TEXT.stopped,scan_start_trigger.keys,scan_start_trigger.rt,scan_start_trigger.started,scan_start_trigger.stopped,MAIN_SCREEN.started,MAIN_SCREEN.stopped,Block_Text.started,Block_Text.stopped,asterisk500ms.started,asterisk500ms.stopped,mult_question_text.started,mult_question_text.stopped,equal_text.started,equal_text.stopped,blank250_text.started,blank250_text.stopped,Mult_OPTION.started,Mult_OPTION.stopped,Mult_YN.started,Mult_YN.stopped,Mult_Resp.keys,Mult_Resp.corr,Mult_Resp.rt,Mult_Resp.started,Mult_Resp.stopped,Strategy_Q.started,Strategy_Q.stopped,Strategy_Option.started,Strategy_Option.stopped,Strategy_RESP.keys,Strategy_RESP.rt,Strategy_RESP.started,Strategy_RESP.stopped,jitters.started,jitters.stopped,resting_text.started,resting_text.stopped,countdown_timer.started,countdown_timer.stopped,participant,Date of birth (DD/MM/YEAR),gender,Testing Date (DD/MM/YEAR),session,handedness,date,expName,psychopyVersion,frameRate
,,,,,,,,,,,,,,,,,,,,,,,,,,45.628788214999986,None,s,15.395942737000041,45.628788214999986,None,,,,,,,,,,,,,,,,,,,,,,,,,,,,,,,,,,,,sub-07,06/10/2001,1: Male,21/09/2023,002,1: right,2023_Sep_21_1830,[FINAL]_fmri_multiplication,2021.2.3,59.990093955823724
block5.xlsx,10,7.5,4.6,3 x 6,18,7,6 x 3 = 18,small-sized_high-interference,small-sized,high-interference,8,CorrectRESP,a,0,0,0,0,0,0,0,0,,,,,,,,,,,61.05847245299992,None,66.07816066500027,None,76.09992184300017,None,76.57760776800023,None,78.57461872400017,None,79.32460713899991,None,79.57665157200017,None,79.57665157200017,None,d,0,1.053411510999922,79.57665157200017,None,80.65873267699999,None,80.65873267699999,None,d,0.29123391700022694,80.65873267699999,None,80.97437192400002,None,,,,,sub-07,06/10/2001,1: Male,21/09/2023,002,1: right,2023_Sep_21_1830,[FINAL]_fmri_multiplication,2021.2.3,59.990093955823724
block5.xlsx,22.1,7.5,7,9 x 9,72,16,9 x 9 = 72,large-sized_low-interference,large-sized,low-interference,6,IncorrectRESP,d,0,0,0,0,0,1,1,1,,,,,,,,,,,,,,,85.57473321299994,None,86.07539109300023,None,88.07478108900023,None,88.82484208899996,None,89.07728254599988,None,89.07728254599988,None,a,0,0.74477367,89.07728254599988,None,89.83940332100019,None,89.83940332100019,None,d,0.29442861899997297,89.83940332100019,None,90.15719035200027,None,,,,,sub-07,06/10/2001,1: Male,21/09/2023,002,1: right,2023_Sep_21_1830,[FINAL]_fmri_multiplication,2021.2.3,59.990093955823724
block5.xlsx,36.6,7.5,4.4,2 x 6,12,6,6 x 2 = 12,small-sized_low-interference,small-sized,low-interference,3,CorrectRESP,a,0,0,0,0,0,2,2,2,,,,,,,,,,,,,,,97.15709198200011,None,97.65714224200019,None,99.65584763,None,100.40770903200018,None,100.65772037200031,None,100.65772037200031,None,d,0,0.6122627519998787,100.65772037200031,None,101.29050257500012,None,101.29050257500012,None,d,0.2034347069998148,101.29050257500012,None,101.52398427400021,None,,,,,sub-07,06/10/2001,1: Male,21/09/2023,002,1: right,2023_Sep_21_1830,[FINAL]_fmri_multiplication,2021.2.3,59.990093955823724
block5.xlsx,48.5,7.5,9.6,8 x 3,24,12,3 x 8 = 24,small-sized_high-interference,small-sized,high-interference,13,CorrectRESP,a,0,0,0,0,0,3,3,3,,,,,,,,,,,,,,,105.92390158700027,None,106.42366147100029,None,108.42460262700024,None,109.17435787400018,None,109.4243629130001,None,109.4243629130001,None,d,0,0.6536785379998946,109.4243629130001,None,110.10754122700018,None,110.10754122700018,None,d,0.18641408299981777,110.10754122700018,None,110.3243892710002,None,,,,,sub-07,06/10/2001,1: Male,21/09/2023,002,1: right,2023_Sep_21_1830,[FINAL]_fmri_multiplication,2021.2.3,59.990093955823724
block5.xlsx,65.6,7.5,5.4,5 x 5,30,3,5 x 5 = 30,small-sized_low-interference,small-sized,low-interference,3,IncorrectRESP,d,0,0,0,0,0,4,4,4,,,,,,,,,,,,,,,119.92495643600023,None,120.42658717900031,None,122.44130776500015,None,123.19104248700023,None,123.4427735,None,123.4427735,None,a,0,0.8671810389996608,123.4427735,None,124.34070657100028,None,124.34070657100028,None,d,0.26535477800007357,124.34070657100028,None,124.6239821170002,None,,,,,sub-07,06/10/2001,1: Male,21/09/2023,002,1: right,2023_Sep_21_1830,[FINAL]_fmri_multiplication,2021.2.3,59.990093955823724
block5.xlsx,78.5,7.5,7.7,3 x 9,27,19,9 x 3 = 27,large-sized_high-interference,large-sized,high-interference,9,CorrectRESP,a,0,0,0,0,0,5,5,5,,,,,,,,,,,,,,,130.0247758989999,None,130.52393989200027,None,132.52448215899994,None,133.27432931900012,None,133.52452177400028,None,133.52452177400028,None,d,0,0.8174557719999029,133.52452177400028,None,134.37277949000008,None,134.37277949000008,None,d,0.18515619000027073,134.37277949000008,None,134.59093030400027,None,,,,,sub-07,06/10/2001,1: Male,21/09/2023,002,1: right,2023_Sep_21_1830,[FINAL]_fmri_multiplication,2021.2.3,59.990093955823724
block5.xlsx,93.7,7.5,3.5,2 x 8,18,5,8 x 2 = 18,small-sized_low-interference,small-sized,low-interference,7,IncorrectRESP,d,0,0,0,0,0,6,6,6,,,,,,,,,,,,,,,142.29090236399998,None,142.79146054600005,None,144.7907811670002,None,145.54077517199994,None,145.7907559270002,None,145.7907559270002,None,d,1,1.4712699560000146,145.7907559270002,None,147.28944458500018,None,147.28944458500018,None,d,0.30061833299987484,147.28944458500018,None,147.60766294800032,None,,,,,sub-07,06/10/2001,1: Male,21/09/2023,002,1: right,2023_Sep_21_1830,[FINAL]_fmri_multiplication,2021.2.3,59.990093955823724
block5.xlsx,104.7,7.5,6.4,7 x 7,49,18,7 x 7 = 49,large-sized_low-interference,large-sized,low-interference,7,CorrectRESP,a,0,0,0,0,0,7,7,7,,,,,,,,,,,,,,,151.1050843789999,None,151.6074296,None,153.60811074699996,None,154.35801070200023,None,154.60849060200007,None,154.60849060200007,None,d,0,0.7414555299997119,154.60849060200007,None,155.3744602300003,None,155.3744602300003,None,d,0.20747281200010548,155.3744602300003,None,155.60746090700013,None,,,,,sub-07,06/10/2001,1: Male,21/09/2023,002,1: right,2023_Sep_21_1830,[FINAL]_fmri_multiplication,2021.2.3,59.990093955823724
block5.xlsx,118.6,7.5,3.2,8 x 5,45,21,5 x 8 = 45,large-sized_high-interference,large-sized,high-interference,9,IncorrectRESP,d,0,0,0,0,0,8,8,8,,,,,,,,,,,,,,,162.00766764400032,None,162.5074679080003,None,164.50787110800002,None,165.25611795600025,None,165.50814940100008,None,165.50814940100008,None,a,0,1.6098895099999027,165.50814940100008,None,167.14053593100016,None,167.14053593100016,None,d,0.3215321769998809,167.14053593100016,None,167.49101650900002,None,,,,,sub-07,06/10/2001,1: Male,21/09/2023,002,1: right,2023_Sep_21_1830,[FINAL]_fmri_multiplication,2021.2.3,59.990093955823724
block5.xlsx,129.3,7.5,6.8,5 x 4,20,8,4 x 5 = 20,small-sized_high-interference,small-sized,high-interference,8,CorrectRESP,a,0,0,0,0,0,9,9,9,,,,,,,,,,,,,,,170.69105852300027,None,171.19073463299992,None,173.19101210899998,None,173.9411502830003,None,174.19089305100033,None,174.19089305100033,None,d,0,0.7271334960000786,174.19089305100033,None,174.94050611500006,None,174.94050611500006,None,d,0.19346933999986504,174.94050611500006,None,175.15720984300015,None,,,,,sub-07,06/10/2001,1: Male,21/09/2023,002,1: right,2023_Sep_21_1830,[FINAL]_fmri_multiplication,2021.2.3,59.990093955823724
block5.xlsx,143.6,7.5,5.5,6 x 5,30,14,5 x 6 = 30,large-sized_low-interference,large-sized,low-interference,6,CorrectRESP,a,0,0,0,0,0,10,10,10,,,,,,,,,,,,,,,181.95768436200024,None,182.45782425900006,None,184.45743169700017,None,185.20775140500018,None,185.45886331700012,None,185.45886331700012,None,d,0,0.9391974969998955,185.45886331700012,None,186.41869669000016,None,186.41869669000016,None,d,0.2592881010000383,186.41869669000016,None,186.69598752899992,None,,,,,sub-07,06/10/2001,1: Male,21/09/2023,002,1: right,2023_Sep_21_1830,[FINAL]_fmri_multiplication,2021.2.3,59.990093955823724
block5.xlsx,156.6,7.5,6,3 x 7,24,11,7 x 3 = 24,small-sized_high-interference,small-sized,high-interference,13,IncorrectRESP,d,0,0,0,0,0,11,11,11,,,,,,,,,,,,,,,192.2078282030002,None,192.70777278900005,None,194.7079146430001,None,195.4578144090001,None,195.70730316000027,None,195.70730316000027,None,a,0,1.122751757,195.70730316000027,None,196.85763977100032,None,196.85763977100032,None,d,0.356353149,196.85763977100032,None,197.24084740700027,None,,,,,sub-07,06/10/2001,1: Male,21/09/2023,002,1: right,2023_Sep_21_1830,[FINAL]_fmri_multiplication,2021.2.3,59.990093955823724
block5.xlsx,170.1,7.5,7.1,5 x 7,40,17,7 x 5 = 40,large-sized_low-interference,large-sized,low-interference,7,IncorrectRESP,d,0,0,0,0,0,12,12,12,,,,,,,,,,,,,,,203.2409401760001,None,203.73976947200026,None,205.74038773200027,None,206.49110578499995,None,206.7414583120003,None,206.7414583120003,None,a,0,0.6805763850002222,206.7414583120003,None,207.44045446500013,None,207.44045446500013,None,d,0.24553591800031427,207.44045446500013,None,207.70721918800018,None,,,,,sub-07,06/10/2001,1: Male,21/09/2023,002,1: right,2023_Sep_21_1830,[FINAL]_fmri_multiplication,2021.2.3,59.990093955823724
block5.xlsx,184.7,7.5,5.3,4 x 6,28,10,6 x 4 = 28,small-sized_high-interference,small-sized,high-interference,12,IncorrectRESP,d,0,0,0,0,0,13,13,13,,,,,,,,,,,,,,,214.8073699239999,None,215.30784734500003,None,217.30771190099995,None,218.0578839990003,None,218.30743827100014,None,218.30743827100014,None,a,0,0.9066369649999615,218.30743827100014,None,219.24074446600025,None,219.24074446600025,None,d,0.2532171660000131,219.24074446600025,None,219.52340097900014,None,,,,,sub-07,06/10/2001,1: Male,21/09/2023,002,1: right,2023_Sep_21_1830,[FINAL]_fmri_multiplication,2021.2.3,59.990093955823724
block5.xlsx,197.5,7.5,4.2,2 x 7,14,1,7 x 2 = 14,small-sized_low-interference,small-sized,low-interference,4,CorrectRESP,a,0,0,0,0,0,14,14,14,,,,,,,,,,,,,,,224.82199747100003,None,225.32728303600015,None,227.34141090599996,None,228.09103787000004,None,228.34246643699998,None,228.34246643699998,None,d,0,0.6395539949999147,228.34246643699998,None,229.0079066530002,None,229.0079066530002,None,d,0.278090696,229.0079066530002,None,229.30760813300003,None,,,,,sub-07,06/10/2001,1: Male,21/09/2023,002,1: right,2023_Sep_21_1830,[FINAL]_fmri_multiplication,2021.2.3,59.990093955823724
block5.xlsx,209.2,7.5,7.2,9 x 4,36,20,4 x 9 = 36,large-sized_high-interference,large-sized,high-interference,9,CorrectRESP,a,0,0,0,0,0,15,15,15,,,,,,,,,,,,,,,233.50748134800006,None,234.00752546400008,None,236.0076040429999,None,236.7577424250003,None,237.0093113,None,237.0093113,None,d,0,0.9406729500001347,237.0093113,None,237.97389383200016,None,237.97389383200016,None,d,0.21627506699996957,237.97389383200016,None,238.2074487509999,None,,,,,sub-07,06/10/2001,1: Male,21/09/2023,002,1: right,2023_Sep_21_1830,[FINAL]_fmri_multiplication,2021.2.3,59.990093955823724
block5.xlsx,223.9,7.5,4.3,4 x 4,20,4,4 x 4 = 20,small-sized_low-interference,small-sized,low-interference,5,IncorrectRESP,d,0,0,0,0,0,16,16,16,,,,,,,,,,,,,,,245.40740668099988,None,245.90729700600014,None,247.90759293400015,None,248.6738243740001,None,248.9255028460002,None,248.9255028460002,None,a,0,1.2004783229999703,248.9255028460002,None,250.15741305600022,None,250.15741305600022,None,d,0.4086553769998318,250.15741305600022,None,250.59064442599993,None,,,,,sub-07,06/10/2001,1: Male,21/09/2023,002,1: right,2023_Sep_21_1830,[FINAL]_fmri_multiplication,2021.2.3,59.990093955823724
block5.xlsx,235.7,7.5,9.9,6 x 7,48,23,7 x 6 = 48,large-sized_high-interference,large-sized,high-interference,22,IncorrectRESP,d,0,0,0,0,0,17,17,17,,,,,,,,,,,,,,,254.89108273500005,None,255.3909460990003,None,257.389339,None,258.1413856,None,258.3916907030002,None,258.3916907030002,None,a,0,1.5502825919998031,258.3916907030002,None,259.9745054250002,None,259.9745054250002,None,d,0.22347502599996005,259.9745054250002,None,260.22435741900017,None,,,,,sub-07,06/10/2001,1: Male,21/09/2023,002,1: right,2023_Sep_21_1830,[FINAL]_fmri_multiplication,2021.2.3,59.990093955823724
block5.xlsx,253.1,7.5,3.1,9 x 2,18,2,2 x 9 = 18,small-sized_low-interference,small-sized,low-interference,7,CorrectRESP,a,0,0,0,0,0,18,18,18,,,,,,,,,,,,,,,270.1244115610002,None,270.6228469380003,None,272.6243917840002,None,273.3743417310002,None,273.62281596599996,None,273.62281596599996,None,d,0,0.7751540150002256,273.62281596599996,None,274.42388999600007,None,274.42388999600007,None,d,0.22218017800014422,274.42388999600007,None,274.67441972899996,None,,,,,sub-07,06/10/2001,1: Male,21/09/2023,002,1: right,2023_Sep_21_1830,[FINAL]_fmri_multiplication,2021.2.3,59.990093955823724
block5.xlsx,263.7,7.5,4.6,5 x 9,40,15,9 x 5 = 40,large-sized_low-interference,large-sized,low-interference,6,IncorrectRESP,d,0,0,0,0,0,19,19,19,,,,,,,,,,,,,,,277.77434604500013,None,278.2730554750001,None,280.2742704,None,281.0242859,None,281.2744551750002,None,281.2744551750002,None,a,0,0.7636085759995694,281.2744551750002,None,282.0572150050002,None,282.0572150050002,None,d,0.268763787,282.0572150050002,None,282.3573755279999,None,,,,,sub-07,06/10/2001,1: Male,21/09/2023,002,1: right,2023_Sep_21_1830,[FINAL]_fmri_multiplication,2021.2.3,59.990093955823724
block5.xlsx,275.8,7.5,3.9,7 x 8,63,22,8 x 7 = 63,large-sized_high-interference,large-sized,high-interference,9,IncorrectRESP,d,0,0,0,0,0,20,20,20,,,,,,,,,,,,,,,286.9576679500001,None,287.4578304480001,None,289.45803975800027,None,290.20749613199996,None,290.45812967500024,None,290.45812967500024,None,a,0,0.8278698230001282,290.45812967500024,None,291.30760591800026,None,291.30760591800026,None,d,0.25835007400019094,291.30760591800026,None,291.5915915290002,None,,,,,sub-07,06/10/2001,1: Male,21/09/2023,002,1: right,2023_Sep_21_1830,[FINAL]_fmri_multiplication,2021.2.3,59.990093955823724
block5.xlsx,287.2,7.5,7.4,4 x 3,15,9,3 x 4 = 15,small-sized_high-interference,small-sized,high-interference,10,IncorrectRESP,d,0,0,0,0,0,21,21,21,,,,,,,,,,,,,,,295.5079908370003,None,296.00855567200006,None,298.00795973699996,None,298.7579606869999,None,299.0073572,None,299.0073572,None,a,0,0.7827491550001469,299.0073572,None,299.80749215700007,None,299.80749215700007,None,d,0.25454864399989674,299.80749215700007,None,300.09141817299997,None,,,,,sub-07,06/10/2001,1: Male,21/09/2023,002,1: right,2023_Sep_21_1830,[FINAL]_fmri_multiplication,2021.2.3,59.990093955823724
block5.xlsx,302.1,7.5,7.1,4 x 8,32,24,8 x 4 = 32,large-sized_high-interference,large-sized,high-interference,25,CorrectRESP,a,0,0,0,0,0,22,22,22,,,,,,,,,,,,,,,307.4910838,None,307.9911156779999,None,309.9910550120003,None,310.74106557999994,None,310.9909511220003,None,310.9909511220003,None,d,0,0.807127686,310.9909511220003,None,311.82387416500023,None,311.82387416500023,None,d,0.21415539300005548,311.82387416500023,None,312.0571749660003,None,,,,,sub-07,06/10/2001,1: Male,21/09/2023,002,1: right,2023_Sep_21_1830,[FINAL]_fmri_multiplication,2021.2.3,59.990093955823724
block5.xlsx,316.7,7.5,10.8,6 x 6,36,13,6 x 6 = 36,large-sized_low-interference,large-sized,low-interference,4,CorrectRESP,a,0,0,0,0,0,23,23,23,,,,,,,,,,,,,,,319.15719740700024,None,319.6573352,None,321.6572623289999,None,322.4076867540002,None,322.6578996,None,322.6578996,None,d,0,0.7321479209999779,322.6578996,None,323.4063277250002,None,323.4063277250002,None,d,0.22371556500002043,323.4063277250002,None,323.6573495769999,None,,,,,sub-07,06/10/2001,1: Male,21/09/2023,002,1: right,2023_Sep_21_1830,[FINAL]_fmri_multiplication,2021.2.3,59.990093955823724
block5.xlsx,,,,,,,,,,,,,,0,0,0,0,,,,,0,0,0,0,,,,,,,,,,,,,,,,,,,,,,,,,,,,,,,,,,,,,,334.4604304100003,None,334.4604304100003,None,sub-07,06/10/2001,1: Male,21/09/2023,002,1: right,2023_Sep_21_1830,[FINAL]_fmri_multiplication,2021.2.3,59.990093955823724
block5.xlsx,,,,,,,,,,,,,,0,0,0,0,,,,,1,0,1,0,,,,,,,,,,,,,,,,,,,,,,,,,,,,,,,,,,,,,,335.4751382600002,None,335.4751382600002,None,sub-07,06/10/2001,1: Male,21/09/2023,002,1: right,2023_Sep_21_1830,[FINAL]_fmri_multiplication,2021.2.3,59.990093955823724
block5.xlsx,,,,,,,,,,,,,,0,0,0,0,,,,,2,0,2,0,,,,,,,,,,,,,,,,,,,,,,,,,,,,,,,,,,,,,,336.47454142200013,None,336.47454142200013,None,sub-07,06/10/2001,1: Male,21/09/2023,002,1: right,2023_Sep_21_1830,[FINAL]_fmri_multiplication,2021.2.3,59.990093955823724
block5.xlsx,,,,,,,,,,,,,,0,0,0,0,,,,,3,0,3,0,,,,,,,,,,,,,,,,,,,,,,,,,,,,,,,,,,,,,,337.4747190799999,None,337.4747190799999,None,sub-07,06/10/2001,1: Male,21/09/2023,002,1: right,2023_Sep_21_1830,[FINAL]_fmri_multiplication,2021.2.3,59.990093955823724
block5.xlsx,,,,,,,,,,,,,,0,0,0,0,,,,,4,0,4,0,,,,,,,,,,,,,,,,,,,,,,,,,,,,,,,,,,,,,,338.4745423449999,None,338.4745423449999,None,sub-07,06/10/2001,1: Male,21/09/2023,002,1: right,2023_Sep_21_1830,[FINAL]_fmri_multiplication,2021.2.3,59.990093955823724
block5.xlsx,,,,,,,,,,,,,,0,0,0,0,,,,,5,0,5,0,,,,,,,,,,,,,,,,,,,,,,,,,,,,,,,,,,,,,,339.4750032310003,None,339.4750032310003,None,sub-07,06/10/2001,1: Male,21/09/2023,002,1: right,2023_Sep_21_1830,[FINAL]_fmri_multiplication,2021.2.3,59.990093955823724
block5.xlsx,,,,,,,,,,,,,,0,0,0,0,,,,,6,0,6,0,,,,,,,,,,,,,,,,,,,,,,,,,,,,,,,,,,,,,,340.4749174530002,None,340.4749174530002,None,sub-07,06/10/2001,1: Male,21/09/2023,002,1: right,2023_Sep_21_1830,[FINAL]_fmri_multiplication,2021.2.3,59.990093955823724
block5.xlsx,,,,,,,,,,,,,,0,0,0,0,,,,,7,0,7,0,,,,,,,,,,,,,,,,,,,,,,,,,,,,,,,,,,,,,,341.47441569500006,None,341.47441569500006,None,sub-07,06/10/2001,1: Male,21/09/2023,002,1: right,2023_Sep_21_1830,[FINAL]_fmri_multiplication,2021.2.3,59.990093955823724
block5.xlsx,,,,,,,,,,,,,,0,0,0,0,,,,,8,0,8,0,,,,,,,,,,,,,,,,,,,,,,,,,,,,,,,,,,,,,,342.47537828500026,None,342.47537828500026,None,sub-07,06/10/2001,1: Male,21/09/2023,002,1: right,2023_Sep_21_1830,[FINAL]_fmri_multiplication,2021.2.3,59.990093955823724
block5.xlsx,,,,,,,,,,,,,,0,0,0,0,,,,,9,0,9,0,,,,,,,,,,,,,,,,,,,,,,,,,,,,,,,,,,,,,,343.4754188470001,None,343.4754188470001,None,sub-07,06/10/2001,1: Male,21/09/2023,002,1: right,2023_Sep_21_1830,[FINAL]_fmri_multiplication,2021.2.3,59.990093955823724
block5.xlsx,,,,,,,,,,,,,,0,0,0,0,,,,,10,0,10,0,,,,,,,,,,,,,,,,,,,,,,,,,,,,,,,,,,,,,,344.4745557649999,None,344.4745557649999,None,sub-07,06/10/2001,1: Male,21/09/2023,002,1: right,2023_Sep_21_1830,[FINAL]_fmri_multiplication,2021.2.3,59.990093955823724
block5.xlsx,,,,,,,,,,,,,,0,0,0,0,,,,,11,0,11,0,,,,,,,,,,,,,,,,,,,,,,,,,,,,,,,,,,,,,,345.47455615800027,None,345.47455615800027,None,sub-07,06/10/2001,1: Male,21/09/2023,002,1: right,2023_Sep_21_1830,[FINAL]_fmri_multiplication,2021.2.3,59.990093955823724
block5.xlsx,,,,,,,,,,,,,,0,0,0,0,,,,,12,0,12,0,,,,,,,,,,,,,,,,,,,,,,,,,,,,,,,,,,,,,,346.475181,None,346.475181,None,sub-07,06/10/2001,1: Male,21/09/2023,002,1: right,2023_Sep_21_1830,[FINAL]_fmri_multiplication,2021.2.3,59.990093955823724
block5.xlsx,,,,,,,,,,,,,,0,0,0,0,,,,,13,0,13,0,,,,,,,,,,,,,,,,,,,,,,,,,,,,,,,,,,,,,,347.4748275750003,None,347.4748275750003,None,sub-07,06/10/2001,1: Male,21/09/2023,002,1: right,2023_Sep_21_1830,[FINAL]_fmri_multiplication,2021.2.3,59.990093955823724
block5.xlsx,,,,,,,,,,,,,,0,0,0,0,,,,,14,0,14,0,,,,,,,,,,,,,,,,,,,,,,,,,,,,,,,,,,,,,,348.4749674570003,None,348.4749674570003,None,sub-07,06/10/2001,1: Male,21/09/2023,002,1: right,2023_Sep_21_1830,[FINAL]_fmri_multiplication,2021.2.3,59.990093955823724
block5.xlsx,,,,,,,,,,,,,,0,0,0,0,,,,,15,0,15,0,,,,,,,,,,,,,,,,,,,,,,,,,,,,,,,,,,,,,,349.4748309020001,None,349.4748309020001,None,sub-07,06/10/2001,1: Male,21/09/2023,002,1: right,2023_Sep_21_1830,[FINAL]_fmri_multiplication,2021.2.3,59.990093955823724
block5.xlsx,,,,,,,,,,,,,,0,0,0,0,,,,,16,0,16,0,,,,,,,,,,,,,,,,,,,,,,,,,,,,,,,,,,,,,,350.4748022220001,None,350.4748022220001,None,sub-07,06/10/2001,1: Male,21/09/2023,002,1: right,2023_Sep_21_1830,[FINAL]_fmri_multiplication,2021.2.3,59.990093955823724
block5.xlsx,,,,,,,,,,,,,,0,0,0,0,,,,,17,0,17,0,,,,,,,,,,,,,,,,,,,,,,,,,,,,,,,,,,,,,,351.4745338920002,None,351.4745338920002,None,sub-07,06/10/2001,1: Male,21/09/2023,002,1: right,2023_Sep_21_1830,[FINAL]_fmri_multiplication,2021.2.3,59.990093955823724
block5.xlsx,,,,,,,,,,,,,,0,0,0,0,,,,,18,0,18,0,,,,,,,,,,,,,,,,,,,,,,,,,,,,,,,,,,,,,,352.4745252820003,None,352.4745252820003,None,sub-07,06/10/2001,1: Male,21/09/2023,002,1: right,2023_Sep_21_1830,[FINAL]_fmri_multiplication,2021.2.3,59.990093955823724
block5.xlsx,,,,,,,,,,,,,,0,0,0,0,,,,,19,0,19,0,,,,,,,,,,,,,,,,,,,,,,,,,,,,,,,,,,,,,,353.47614247599995,None,353.47614247599995,None,sub-07,06/10/2001,1: Male,21/09/2023,002,1: right,2023_Sep_21_1830,[FINAL]_fmri_multiplication,2021.2.3,59.990093955823724
block5.xlsx,,,,,,,,,,,,,,0,0,0,0,,,,,20,0,20,0,,,,,,,,,,,,,,,,,,,,,,,,,,,,,,,,,,,,,,354.47426944400013,None,354.47426944400013,None,sub-07,06/10/2001,1: Male,21/09/2023,002,1: right,2023_Sep_21_1830,[FINAL]_fmri_multiplication,2021.2.3,59.990093955823724
block5.xlsx,,,,,,,,,,,,,,0,0,0,0,,,,,21,0,21,0,,,,,,,,,,,,,,,,,,,,,,,,,,,,,,,,,,,,,,355.4746987660001,None,355.4746987660001,None,sub-07,06/10/2001,1: Male,21/09/2023,002,1: right,2023_Sep_21_1830,[FINAL]_fmri_multiplication,2021.2.3,59.990093955823724
block5.xlsx,,,,,,,,,,,,,,0,0,0,0,,,,,22,0,22,0,,,,,,,,,,,,,,,,,,,,,,,,,,,,,,,,,,,,,,356.47419502799994,None,356.47419502799994,None,sub-07,06/10/2001,1: Male,21/09/2023,002,1: right,2023_Sep_21_1830,[FINAL]_fmri_multiplication,2021.2.3,59.990093955823724
block5.xlsx,,,,,,,,,,,,,,0,0,0,0,,,,,23,0,23,0,,,,,,,,,,,,,,,,,,,,,,,,,,,,,,,,,,,,,,357.4756189479999,None,357.4756189479999,None,sub-07,06/10/2001,1: Male,21/09/2023,002,1: right,2023_Sep_21_1830,[FINAL]_fmri_multiplication,2021.2.3,59.990093955823724
block5.xlsx,,,,,,,,,,,,,,0,0,0,0,,,,,24,0,24,0,,,,,,,,,,,,,,,,,,,,,,,,,,,,,,,,,,,,,,358.4884676659999,None,358.4884676659999,None,sub-07,06/10/2001,1: Male,21/09/2023,002,1: right,2023_Sep_21_1830,[FINAL]_fmri_multiplication,2021.2.3,59.990093955823724
block5.xlsx,,,,,,,,,,,,,,0,0,0,0,,,,,25,0,25,0,,,,,,,,,,,,,,,,,,,,,,,,,,,,,,,,,,,,,,359.47556526100016,None,359.47556526100016,None,sub-07,06/10/2001,1: Male,21/09/2023,002,1: right,2023_Sep_21_1830,[FINAL]_fmri_multiplication,2021.2.3,59.990093955823724
block5.xlsx,,,,,,,,,,,,,,0,0,0,0,,,,,26,0,26,0,,,,,,,,,,,,,,,,,,,,,,,,,,,,,,,,,,,,,,360.47413700100014,None,360.47413700100014,None,sub-07,06/10/2001,1: Male,21/09/2023,002,1: right,2023_Sep_21_1830,[FINAL]_fmri_multiplication,2021.2.3,59.990093955823724
block5.xlsx,,,,,,,,,,,,,,0,0,0,0,,,,,27,0,27,0,,,,,,,,,,,,,,,,,,,,,,,,,,,,,,,,,,,,,,361.4758912780003,None,361.4758912780003,None,sub-07,06/10/2001,1: Male,21/09/2023,002,1: right,2023_Sep_21_1830,[FINAL]_fmri_multiplication,2021.2.3,59.990093955823724
block5.xlsx,,,,,,,,,,,,,,0,0,0,0,,,,,28,0,28,0,,,,,,,,,,,,,,,,,,,,,,,,,,,,,,,,,,,,,,362.4735742150001,None,362.4735742150001,None,sub-07,06/10/2001,1: Male,21/09/2023,002,1: right,2023_Sep_21_1830,[FINAL]_fmri_multiplication,2021.2.3,59.990093955823724
block5.xlsx,,,,,,,,,,,,,,0,0,0,0,,,,,29,0,29,0,,,,,,,,,,,,,,,,,,,,,,,,,,,,,,,,,,,,,,363.47471995700016,None,363.47471995700016,None,sub-07,06/10/2001,1: Male,21/09/2023,002,1: right,2023_Sep_21_1830,[FINAL]_fmri_multiplication,2021.2.3,59.990093955823724
block5.xlsx,,,,,,,,,,,,,,0,0,0,0,,,,,,,,,,,,,,,,,,,,,,,,,,,,,,,,,,,,,,,,,,,,,,,,,,sub-07,06/10/2001,1: Male,21/09/2023,002,1: right,2023_Sep_21_1830,[FINAL]_fmri_multiplication,2021.2.3,59.990093955823724
block6.xlsx,10,7.5,4.1,6 x 5,36,14,5 x 6 = 36,large-sized_low-interference,large-sized,low-interference,6,IncorrectRESP,d,0,1,1,1,0,0,0,0,,,,,,,,,,,,,364.4754811,None,374.49750543400023,None,374.974045,None,376.9745071800003,None,377.72441480399993,None,377.9728634,None,377.9728634,None,a,0,0.8491714100000536,377.9728634,None,378.84079121600007,None,378.84079121600007,None,d,0.2851895300000251,378.84079121600007,None,379.15699774199993,None,,,,,sub-07,06/10/2001,1: Male,21/09/2023,002,1: right,2023_Sep_21_1830,[FINAL]_fmri_multiplication,2021.2.3,59.990093955823724
block6.xlsx,21.6,7.5,7.2,2 x 6,10,6,6 x 2 = 10,small-sized_low-interference,small-sized,low-interference,3,IncorrectRESP,d,0,1,1,1,0,1,1,1,,,,,,,,,,,,,,,383.25764025900025,None,383.7575420830003,None,385.7575468130003,None,386.50774334900007,None,386.75769897500004,None,386.75769897500004,None,a,0,1.3362566790001438,386.75769897500004,None,388.12430375500026,None,388.12430375500026,None,d,0.3297892400000819,388.12430375500026,None,388.4738702310001,None,,,,,sub-07,06/10/2001,1: Male,21/09/2023,002,1: right,2023_Sep_21_1830,[FINAL]_fmri_multiplication,2021.2.3,59.990093955823724
block6.xlsx,36.3,7.5,13.8,6 x 7,42,23,7 x 6 = 42,large-sized_high-interference,large-sized,high-interference,22,CorrectRESP,a,0,1,1,1,0,2,2,2,,,,,,,,,,,,,,,395.6743931840001,None,396.17449750800006,None,398.19149227100024,None,398.9397719990002,None,399.1923306200001,None,399.1923306200001,None,d,0,0.6537056960000882,399.1923306200001,None,399.8744607,None,399.8744607,None,d,0.21153128700007073,399.8744607,None,400.1076773,None,,,,,sub-07,06/10/2001,1: Male,21/09/2023,002,1: right,2023_Sep_21_1830,[FINAL]_fmri_multiplication,2021.2.3,59.990093955823724
block6.xlsx,57.6,7.5,3.7,3 x 7,21,11,7 x 3 = 21,small-sized_high-interference,small-sized,high-interference,13,CorrectRESP,a,0,1,1,1,0,3,3,3,,,,,,,,,,,,,,,413.90762970100013,None,414.4059594979999,None,416.40731192400017,None,417.15760625600024,None,417.4083548,None,417.4083548,None,d,0,1.0217195479999646,417.4083548,None,418.4558329239999,None,418.4558329239999,None,d,0.22210268399976485,418.4558329239999,None,418.70751678800025,None,,,,,sub-07,06/10/2001,1: Male,21/09/2023,002,1: right,2023_Sep_21_1830,[FINAL]_fmri_multiplication,2021.2.3,59.990093955823724
block6.xlsx,68.8,7.5,7.8,2 x 7,12,1,7 x 2 = 12,small-sized_low-interference,small-sized,low-interference,4,IncorrectRESP,d,0,1,1,1,0,4,4,4,,,,,,,,,,,,,,,422.40682753300007,None,422.90750444000014,None,424.9076133970002,None,425.65760734900005,None,425.9081452370001,None,425.9081452370001,None,a,0,0.7539199869997901,425.9081452370001,None,426.690936,None,426.690936,None,d,0.2670431700003064,426.690936,None,426.99055092200024,None,,,,,sub-07,06/10/2001,1: Male,21/09/2023,002,1: right,2023_Sep_21_1830,[FINAL]_fmri_multiplication,2021.2.3,59.990093955823724
block6.xlsx,84.1,7.5,8.6,3 x 9,24,19,9 x 3 = 24,large-sized_high-interference,large-sized,high-interference,9,IncorrectRESP,d,0,1,1,1,0,5,5,5,,,,,,,,,,,,,,,434.7878362630004,None,435.28270053700044,None,437.2893132490003,None,438.04140951100044,None,438.29154671399965,None,438.29154671399965,None,a,0,0.858453182,438.29154671399965,None,439.1743352260005,None,439.1743352260005,None,d,0.2956127990000823,439.1743352260005,None,439.49085894800055,None,,,,,sub-07,06/10/2001,1: Male,21/09/2023,002,1: right,2023_Sep_21_1830,[FINAL]_fmri_multiplication,2021.2.3,59.990093955823724
block6.xlsx,100.2,7.5,3.3,4 x 6,24,10,6 x 4 = 24,small-sized_high-interference,small-sized,high-interference,12,CorrectRESP,a,0,1,1,1,0,6,6,6,,,,,,,,,,,,,,,448.0909632730004,None,448.5896398970003,None,450.5907763,None,451.3410305150005,None,451.5906174380002,None,451.5906174380002,None,d,0,0.6074505400001726,451.5906174380002,None,452.22379221300025,None,452.22379221300025,None,d,0.21429129200078023,452.22379221300025,None,452.45716170700007,None,,,,,sub-07,06/10/2001,1: Male,21/09/2023,002,1: right,2023_Sep_21_1830,[FINAL]_fmri_multiplication,2021.2.3,59.990093955823724
block6.xlsx,111,7.5,6.3,9 x 2,16,2,2 x 9 = 16,small-sized_low-interference,small-sized,low-interference,7,IncorrectRESP,d,0,1,1,1,0,7,7,7,,,,,,,,,,,,,,,455.75764167900024,None,456.25746313900027,None,458.25756473200045,None,459.0076834759998,None,459.25759866199996,None,459.25759866199996,None,d,1,1.0444477050004934,459.25759866199996,None,460.3237907839998,None,460.3237907839998,None,d,0.26626630400005524,460.3237907839998,None,460.60695275900025,None,,,,,sub-07,06/10/2001,1: Male,21/09/2023,002,1: right,2023_Sep_21_1830,[FINAL]_fmri_multiplication,2021.2.3,59.990093955823724
block6.xlsx,124.8,7.5,3.1,6 x 6,30,13,6 x 6 = 30,large-sized_low-interference,large-sized,low-interference,4,IncorrectRESP,d,0,1,1,1,0,8,8,8,,,,,,,,,,,,,,,466.9079048460003,None,467.4249235459997,None,469.4247433309997,None,470.1748002680001,None,470.42521271299984,None,470.42521271299984,None,d,1,1.2447740770003293,470.42521271299984,None,471.68979570700003,None,471.68979570700003,None,d,0.2601098519999141,471.68979570700003,None,471.9747113870003,None,,,,,sub-07,06/10/2001,1: Male,21/09/2023,002,1: right,2023_Sep_21_1830,[FINAL]_fmri_multiplication,2021.2.3,59.990093955823724
block6.xlsx,135.4,7.5,2.7,5 x 4,16,8,4 x 5 = 16,small-sized_high-interference,small-sized,high-interference,8,IncorrectRESP,d,0,1,1,1,0,9,9,9,,,,,,,,,,,,,,,475.0747643890004,None,475.5741647250002,None,477.57458383899984,None,478.32458564499984,None,478.57422362399984,None,478.57422362399984,None,a,0,0.8319395600001371,478.57422362399984,None,479.4237970039999,None,479.4237970039999,None,d,0.27827083700049116,479.4237970039999,None,479.7238490370005,None,,,,,sub-07,06/10/2001,1: Male,21/09/2023,002,1: right,2023_Sep_21_1830,[FINAL]_fmri_multiplication,2021.2.3,59.990093955823724
block6.xlsx,145.6,7.5,5.1,5 x 5,25,3,5 x 5 = 25,small-sized_low-interference,small-sized,low-interference,3,CorrectRESP,a,0,1,1,1,0,10,10,10,,,,,,,,,,,,,,,482.4242733750002,None,482.9240275320003,None,484.94101111900045,None,485.69121927900005,None,485.9410181420003,None,485.9410181420003,None,d,0,0.6811155420000432,485.9410181420003,None,486.6406588390005,None,486.6406588390005,None,d,0.2372971239992694,486.6406588390005,None,486.90760310999985,None,,,,,sub-07,06/10/2001,1: Male,21/09/2023,002,1: right,2023_Sep_21_1830,[FINAL]_fmri_multiplication,2021.2.3,59.990093955823724
block6.xlsx,158.2,7.5,2.9,7 x 7,56,18,7 x 7 = 56,large-sized_low-interference,large-sized,low-interference,7,IncorrectRESP,d,0,1,1,1,0,11,11,11,,,,,,,,,,,,,,,492.007505,None,492.50704607299986,None,494.50780169499967,None,495.25766969500046,None,495.50838805300054,None,495.50838805300054,None,a,0,0.8736979899995276,495.50838805300054,None,496.4069835329997,None,496.4069835329997,None,d,0.3350019230001635,496.4069835329997,None,496.77389583099966,None,,,,,sub-07,06/10/2001,1: Male,21/09/2023,002,1: right,2023_Sep_21_1830,[FINAL]_fmri_multiplication,2021.2.3,59.990093955823724
block6.xlsx,168.6,7.5,5.7,3 x 6,15,7,6 x 3 = 15,small-sized_high-interference,small-sized,high-interference,8,IncorrectRESP,d,0,1,1,1,0,12,12,12,,,,,,,,,,,,,,,499.6745044180002,None,500.17398540800014,None,502.17456064499993,None,502.9276647640004,None,503.1763276300003,None,503.1763276300003,None,None,0,,503.1763276300003,None,505.19098021000036,None,505.19098021000036,None,a,0.3270687479998742,505.19098021000036,None,505.5411745180004,None,,,,,sub-07,06/10/2001,1: Male,21/09/2023,002,1: right,2023_Sep_21_1830,[FINAL]_fmri_multiplication,2021.2.3,59.990093955823724
block6.xlsx,181.8,7.5,3,2 x 8,16,5,8 x 2 = 16,small-sized_low-interference,small-sized,low-interference,7,CorrectRESP,a,0,1,1,1,0,13,13,13,,,,,,,,,,,,,,,511.2411832170005,None,511.7419232309999,None,513.7404981570003,None,514.4910619850002,None,514.7408847339998,None,514.7408847339998,None,d,0,0.6331504370000403,514.7408847339998,None,515.3907572160001,None,515.3907572160001,None,d,0.6153585390002263,515.3907572160001,None,516.0239491090001,None,,,,,sub-07,06/10/2001,1: Male,21/09/2023,002,1: right,2023_Sep_21_1830,[FINAL]_fmri_multiplication,2021.2.3,59.990093955823724
block6.xlsx,192.3,7.5,5.9,5 x 9,45,15,9 x 5 = 45,large-sized_low-interference,large-sized,low-interference,6,CorrectRESP,a,0,1,1,1,0,14,14,14,,,,,,,,,,,,,,,519.0249090909997,None,519.5257318,None,521.5411999359999,None,522.2910766400005,None,522.5399017,None,522.5399017,None,a,1,0.8421086299995295,522.5399017,None,523.4069729349999,None,523.4069729349999,None,d,0.215077622,523.4069729349999,None,523.6404963939999,None,,,,,sub-07,06/10/2001,1: Male,21/09/2023,002,1: right,2023_Sep_21_1830,[FINAL]_fmri_multiplication,2021.2.3,59.990093955823724
block6.xlsx,205.7,7.5,2.1,4 x 3,12,9,3 x 4 = 12,small-sized_high-interference,small-sized,high-interference,10,CorrectRESP,a,0,1,1,1,0,15,15,15,,,,,,,,,,,,,,,529.5406040749999,None,530.0407940420005,None,532.0406442569997,None,532.7910255190004,None,533.0392964520001,None,533.0392964520001,None,d,0,0.6866254050000862,533.0392964520001,None,533.7572848249997,None,533.7572848249997,None,d,0.2087172779993125,533.7572848249997,None,533.9907756070002,None,,,,,sub-07,06/10/2001,1: Male,21/09/2023,002,1: right,2023_Sep_21_1830,[FINAL]_fmri_multiplication,2021.2.3,59.990093955823724
block6.xlsx,215.3,7.5,9.9,7 x 8,56,22,8 x 7 = 56,large-sized_high-interference,large-sized,high-interference,9,CorrectRESP,a,0,1,1,1,0,16,16,16,,,,,,,,,,,,,,,536.0910864009998,None,536.5911350490001,None,538.5912270049998,None,539.3413759709997,None,539.5906380890005,None,539.5906380890005,None,d,0,0.7753713259999131,539.5906380890005,None,540.3914081770004,None,540.3914081770004,None,d,0.2945790700005091,540.3914081770004,None,540.7075511,None,,,,,sub-07,06/10/2001,1: Male,21/09/2023,002,1: right,2023_Sep_21_1830,[FINAL]_fmri_multiplication,2021.2.3,59.990093955823724
block6.xlsx,232.7,7.5,2.2,8 x 3,21,12,3 x 8 = 21,small-sized_high-interference,small-sized,high-interference,13,IncorrectRESP,d,0,1,1,1,0,17,17,17,,,,,,,,,,,,,,,550.6077002,None,551.1076291439999,None,553.1078173199999,None,553.8575583630004,None,554.1078308370002,None,554.1078308370002,None,a,0,1.066330294999716,554.1078308370002,None,555.1897753500002,None,555.1897753500002,None,d,0.3521761329993751,555.1897753500002,None,555.5742808050004,None,,,,,sub-07,06/10/2001,1: Male,21/09/2023,002,1: right,2023_Sep_21_1830,[FINAL]_fmri_multiplication,2021.2.3,59.990093955823724
block6.xlsx,242.4,7.5,7.9,9 x 9,81,16,9 x 9 = 81,large-sized_low-interference,large-sized,low-interference,6,CorrectRESP,a,0,1,1,1,0,18,18,18,,,,,,,,,,,,,,,557.7747154570002,None,558.2739677189998,None,560.2744114150005,None,561.0242001020001,None,561.2740334069999,None,561.2740334069999,None,d,0,0.6119740459998866,561.2740334069999,None,561.9072506,None,561.9072506,None,d,0.45072966499992617,561.9072506,None,562.3905346420001,None,,,,,sub-07,06/10/2001,1: Male,21/09/2023,002,1: right,2023_Sep_21_1830,[FINAL]_fmri_multiplication,2021.2.3,59.990093955823724
block6.xlsx,257.8,7.5,8.3,9 x 4,32,20,4 x 9 = 32,large-sized_high-interference,large-sized,high-interference,9,IncorrectRESP,d,0,1,1,1,0,19,19,19,,,,,,,,,,,,,,,570.2911809339998,None,570.7911531,None,572.7969838,None,573.5378379930003,None,573.7833852489998,None,573.7833852489998,None,a,0,0.6945795290002934,573.7833852489998,None,574.5079088360003,None,574.5079088360003,None,d,0.2901548250001724,574.5079088360003,None,574.8245899039998,None,,,,,sub-07,06/10/2001,1: Male,21/09/2023,002,1: right,2023_Sep_21_1830,[FINAL]_fmri_multiplication,2021.2.3,59.990093955823724
block6.xlsx,273.6,7.5,12.1,5 x 7,35,17,7 x 5 = 35,large-sized_low-interference,large-sized,low-interference,7,CorrectRESP,a,0,1,1,1,0,20,20,20,,,,,,,,,,,,,,,583.1244766980003,None,583.6225408020005,None,585.6241834369998,None,586.3743548529997,None,586.6239645640003,None,586.6239645640003,None,d,0,0.6859714920001352,586.6239645640003,None,587.3409621920005,None,587.3409621920005,None,d,0.18500864500038006,587.3409621920005,None,587.5574284620002,None,,,,,sub-07,06/10/2001,1: Male,21/09/2023,002,1: right,2023_Sep_21_1830,[FINAL]_fmri_multiplication,2021.2.3,59.990093955823724
block6.xlsx,293.2,7.5,4.1,4 x 8,28,24,8 x 4 = 28,large-sized_high-interference,large-sized,high-interference,25,IncorrectRESP,d,0,1,1,1,0,21,21,21,,,,,,,,,,,,,,,599.6571602950003,None,600.1577708589998,None,602.1576144149999,None,602.9076865780003,None,603.1576031910004,None,603.1576031910004,None,a,0,0.7523467740002161,603.1576031910004,None,603.9393091160005,None,603.9393091160005,None,d,0.21069729200007714,603.9393091160005,None,604.1740728850004,None,,,,,sub-07,06/10/2001,1: Male,21/09/2023,002,1: right,2023_Sep_21_1830,[FINAL]_fmri_multiplication,2021.2.3,59.990093955823724
block6.xlsx,304.8,7.5,6.7,4 x 4,16,4,4 x 4 = 16,small-sized_low-interference,small-sized,low-interference,5,CorrectRESP,a,0,1,1,1,0,22,22,22,,,,,,,,,,,,,,,608.2748423779999,None,608.7745242619999,None,610.7747448510004,None,611.5247830399999,None,611.7744533720002,None,611.7744533720002,None,d,0,0.7435687040006087,611.7744533720002,None,612.5410049320003,None,612.5410049320003,None,d,0.2009716019992993,612.5410049320003,None,612.7743791939997,None,,,,,sub-07,06/10/2001,1: Male,21/09/2023,002,1: right,2023_Sep_21_1830,[FINAL]_fmri_multiplication,2021.2.3,59.990093955823724
block6.xlsx,319,7.5,8.5,8 x 5,40,21,5 x 8 = 40,large-sized_high-interference,large-sized,high-interference,9,CorrectRESP,a,0,1,1,1,0,23,23,23,,,,,,,,,,,,,,,619.4744033880002,None,619.9739137009997,None,621.9726283,None,622.7245887,None,622.9742678830003,None,622.9742678830003,None,d,0,0.6316752709999491,622.9742678830003,None,623.6228778,None,623.6228778,None,d,0.21515018700029032,623.6228778,None,623.8571325,None,,,,,sub-07,06/10/2001,1: Male,21/09/2023,002,1: right,2023_Sep_21_1830,[FINAL]_fmri_multiplication,2021.2.3,59.990093955823724
block6.xlsx,,,,,,,,,,,,,,0,1,1,1,,,,,0,0,0,0,,,,,,,,,,,,,,,,,,,,,,,,,,,,,,,,,,,,,,632.3601448679997,None,632.3601448679997,None,sub-07,06/10/2001,1: Male,21/09/2023,002,1: right,2023_Sep_21_1830,[FINAL]_fmri_multiplication,2021.2.3,59.990093955823724
block6.xlsx,,,,,,,,,,,,,,0,1,1,1,,,,,1,0,1,0,,,,,,,,,,,,,,,,,,,,,,,,,,,,,,,,,,,,,,633.374774,None,633.374774,None,sub-07,06/10/2001,1: Male,21/09/2023,002,1: right,2023_Sep_21_1830,[FINAL]_fmri_multiplication,2021.2.3,59.990093955823724
block6.xlsx,,,,,,,,,,,,,,0,1,1,1,,,,,2,0,2,0,,,,,,,,,,,,,,,,,,,,,,,,,,,,,,,,,,,,,,634.3742222,None,634.3742222,None,sub-07,06/10/2001,1: Male,21/09/2023,002,1: right,2023_Sep_21_1830,[FINAL]_fmri_multiplication,2021.2.3,59.990093955823724
block6.xlsx,,,,,,,,,,,,,,0,1,1,1,,,,,3,0,3,0,,,,,,,,,,,,,,,,,,,,,,,,,,,,,,,,,,,,,,635.3746578180003,None,635.3746578180003,None,sub-07,06/10/2001,1: Male,21/09/2023,002,1: right,2023_Sep_21_1830,[FINAL]_fmri_multiplication,2021.2.3,59.990093955823724
block6.xlsx,,,,,,,,,,,,,,0,1,1,1,,,,,4,0,4,0,,,,,,,,,,,,,,,,,,,,,,,,,,,,,,,,,,,,,,636.3745809819998,None,636.3745809819998,None,sub-07,06/10/2001,1: Male,21/09/2023,002,1: right,2023_Sep_21_1830,[FINAL]_fmri_multiplication,2021.2.3,59.990093955823724
block6.xlsx,,,,,,,,,,,,,,0,1,1,1,,,,,5,0,5,0,,,,,,,,,,,,,,,,,,,,,,,,,,,,,,,,,,,,,,637.37553,None,637.37553,None,sub-07,06/10/2001,1: Male,21/09/2023,002,1: right,2023_Sep_21_1830,[FINAL]_fmri_multiplication,2021.2.3,59.990093955823724
block6.xlsx,,,,,,,,,,,,,,0,1,1,1,,,,,6,0,6,0,,,,,,,,,,,,,,,,,,,,,,,,,,,,,,,,,,,,,,638.3761483900003,None,638.3761483900003,None,sub-07,06/10/2001,1: Male,21/09/2023,002,1: right,2023_Sep_21_1830,[FINAL]_fmri_multiplication,2021.2.3,59.990093955823724
block6.xlsx,,,,,,,,,,,,,,0,1,1,1,,,,,7,0,7,0,,,,,,,,,,,,,,,,,,,,,,,,,,,,,,,,,,,,,,639.3746038270006,None,639.3746038270006,None,sub-07,06/10/2001,1: Male,21/09/2023,002,1: right,2023_Sep_21_1830,[FINAL]_fmri_multiplication,2021.2.3,59.990093955823724
block6.xlsx,,,,,,,,,,,,,,0,1,1,1,,,,,8,0,8,0,,,,,,,,,,,,,,,,,,,,,,,,,,,,,,,,,,,,,,640.3752683859998,None,640.3752683859998,None,sub-07,06/10/2001,1: Male,21/09/2023,002,1: right,2023_Sep_21_1830,[FINAL]_fmri_multiplication,2021.2.3,59.990093955823724
block6.xlsx,,,,,,,,,,,,,,0,1,1,1,,,,,9,0,9,0,,,,,,,,,,,,,,,,,,,,,,,,,,,,,,,,,,,,,,641.3756070690001,None,641.3756070690001,None,sub-07,06/10/2001,1: Male,21/09/2023,002,1: right,2023_Sep_21_1830,[FINAL]_fmri_multiplication,2021.2.3,59.990093955823724
block6.xlsx,,,,,,,,,,,,,,0,1,1,1,,,,,10,0,10,0,,,,,,,,,,,,,,,,,,,,,,,,,,,,,,,,,,,,,,642.3755397210002,None,642.3755397210002,None,sub-07,06/10/2001,1: Male,21/09/2023,002,1: right,2023_Sep_21_1830,[FINAL]_fmri_multiplication,2021.2.3,59.990093955823724
block6.xlsx,,,,,,,,,,,,,,0,1,1,1,,,,,11,0,11,0,,,,,,,,,,,,,,,,,,,,,,,,,,,,,,,,,,,,,,643.3716754880002,None,643.3716754880002,None,sub-07,06/10/2001,1: Male,21/09/2023,002,1: right,2023_Sep_21_1830,[FINAL]_fmri_multiplication,2021.2.3,59.990093955823724
block6.xlsx,,,,,,,,,,,,,,0,1,1,1,,,,,12,0,12,0,,,,,,,,,,,,,,,,,,,,,,,,,,,,,,,,,,,,,,644.3753365050002,None,644.3753365050002,None,sub-07,06/10/2001,1: Male,21/09/2023,002,1: right,2023_Sep_21_1830,[FINAL]_fmri_multiplication,2021.2.3,59.990093955823724
block6.xlsx,,,,,,,,,,,,,,0,1,1,1,,,,,13,0,13,0,,,,,,,,,,,,,,,,,,,,,,,,,,,,,,,,,,,,,,645.3753239869998,None,645.3753239869998,None,sub-07,06/10/2001,1: Male,21/09/2023,002,1: right,2023_Sep_21_1830,[FINAL]_fmri_multiplication,2021.2.3,59.990093955823724
block6.xlsx,,,,,,,,,,,,,,0,1,1,1,,,,,14,0,14,0,,,,,,,,,,,,,,,,,,,,,,,,,,,,,,,,,,,,,,646.3742458009997,None,646.3742458009997,None,sub-07,06/10/2001,1: Male,21/09/2023,002,1: right,2023_Sep_21_1830,[FINAL]_fmri_multiplication,2021.2.3,59.990093955823724
block6.xlsx,,,,,,,,,,,,,,0,1,1,1,,,,,15,0,15,0,,,,,,,,,,,,,,,,,,,,,,,,,,,,,,,,,,,,,,647.3753989190004,None,647.3753989190004,None,sub-07,06/10/2001,1: Male,21/09/2023,002,1: right,2023_Sep_21_1830,[FINAL]_fmri_multiplication,2021.2.3,59.990093955823724
block6.xlsx,,,,,,,,,,,,,,0,1,1,1,,,,,16,0,16,0,,,,,,,,,,,,,,,,,,,,,,,,,,,,,,,,,,,,,,648.3753706290004,None,648.3753706290004,None,sub-07,06/10/2001,1: Male,21/09/2023,002,1: right,2023_Sep_21_1830,[FINAL]_fmri_multiplication,2021.2.3,59.990093955823724
block6.xlsx,,,,,,,,,,,,,,0,1,1,1,,,,,17,0,17,0,,,,,,,,,,,,,,,,,,,,,,,,,,,,,,,,,,,,,,649.3754390890003,None,649.3754390890003,None,sub-07,06/10/2001,1: Male,21/09/2023,002,1: right,2023_Sep_21_1830,[FINAL]_fmri_multiplication,2021.2.3,59.990093955823724
block6.xlsx,,,,,,,,,,,,,,0,1,1,1,,,,,18,0,18,0,,,,,,,,,,,,,,,,,,,,,,,,,,,,,,,,,,,,,,650.3758747810002,None,650.3758747810002,None,sub-07,06/10/2001,1: Male,21/09/2023,002,1: right,2023_Sep_21_1830,[FINAL]_fmri_multiplication,2021.2.3,59.990093955823724
block6.xlsx,,,,,,,,,,,,,,0,1,1,1,,,,,19,0,19,0,,,,,,,,,,,,,,,,,,,,,,,,,,,,,,,,,,,,,,651.3746683109998,None,651.3746683109998,None,sub-07,06/10/2001,1: Male,21/09/2023,002,1: right,2023_Sep_21_1830,[FINAL]_fmri_multiplication,2021.2.3,59.990093955823724
block6.xlsx,,,,,,,,,,,,,,0,1,1,1,,,,,20,0,20,0,,,,,,,,,,,,,,,,,,,,,,,,,,,,,,,,,,,,,,652.3745145280004,None,652.3745145280004,None,sub-07,06/10/2001,1: Male,21/09/2023,002,1: right,2023_Sep_21_1830,[FINAL]_fmri_multiplication,2021.2.3,59.990093955823724
block6.xlsx,,,,,,,,,,,,,,0,1,1,1,,,,,21,0,21,0,,,,,,,,,,,,,,,,,,,,,,,,,,,,,,,,,,,,,,653.3764136340001,None,653.3764136340001,None,sub-07,06/10/2001,1: Male,21/09/2023,002,1: right,2023_Sep_21_1830,[FINAL]_fmri_multiplication,2021.2.3,59.990093955823724
block6.xlsx,,,,,,,,,,,,,,0,1,1,1,,,,,22,0,22,0,,,,,,,,,,,,,,,,,,,,,,,,,,,,,,,,,,,,,,654.3741558,None,654.3741558,None,sub-07,06/10/2001,1: Male,21/09/2023,002,1: right,2023_Sep_21_1830,[FINAL]_fmri_multiplication,2021.2.3,59.990093955823724
block6.xlsx,,,,,,,,,,,,,,0,1,1,1,,,,,23,0,23,0,,,,,,,,,,,,,,,,,,,,,,,,,,,,,,,,,,,,,,655.3748142609998,None,655.3748142609998,None,sub-07,06/10/2001,1: Male,21/09/2023,002,1: right,2023_Sep_21_1830,[FINAL]_fmri_multiplication,2021.2.3,59.990093955823724
block6.xlsx,,,,,,,,,,,,,,0,1,1,1,,,,,24,0,24,0,,,,,,,,,,,,,,,,,,,,,,,,,,,,,,,,,,,,,,656.3745257510004,None,656.3745257510004,None,sub-07,06/10/2001,1: Male,21/09/2023,002,1: right,2023_Sep_21_1830,[FINAL]_fmri_multiplication,2021.2.3,59.990093955823724
block6.xlsx,,,,,,,,,,,,,,0,1,1,1,,,,,25,0,25,0,,,,,,,,,,,,,,,,,,,,,,,,,,,,,,,,,,,,,,657.3739454379997,None,657.3739454379997,None,sub-07,06/10/2001,1: Male,21/09/2023,002,1: right,2023_Sep_21_1830,[FINAL]_fmri_multiplication,2021.2.3,59.990093955823724
block6.xlsx,,,,,,,,,,,,,,0,1,1,1,,,,,26,0,26,0,,,,,,,,,,,,,,,,,,,,,,,,,,,,,,,,,,,,,,658.3742258530006,None,658.3742258530006,None,sub-07,06/10/2001,1: Male,21/09/2023,002,1: right,2023_Sep_21_1830,[FINAL]_fmri_multiplication,2021.2.3,59.990093955823724
block6.xlsx,,,,,,,,,,,,,,0,1,1,1,,,,,27,0,27,0,,,,,,,,,,,,,,,,,,,,,,,,,,,,,,,,,,,,,,659.3732221550003,None,659.3732221550003,None,sub-07,06/10/2001,1: Male,21/09/2023,002,1: right,2023_Sep_21_1830,[FINAL]_fmri_multiplication,2021.2.3,59.990093955823724
block6.xlsx,,,,,,,,,,,,,,0,1,1,1,,,,,28,0,28,0,,,,,,,,,,,,,,,,,,,,,,,,,,,,,,,,,,,,,,660.3741434300005,None,660.3741434300005,None,sub-07,06/10/2001,1: Male,21/09/2023,002,1: right,2023_Sep_21_1830,[FINAL]_fmri_multiplication,2021.2.3,59.990093955823724
block6.xlsx,,,,,,,,,,,,,,0,1,1,1,,,,,29,0,29,0,,,,,,,,,,,,,,,,,,,,,,,,,,,,,,,,,,,,,,661.3736772550005,None,661.3736772550005,None,sub-07,06/10/2001,1: Male,21/09/2023,002,1: right,2023_Sep_21_1830,[FINAL]_fmri_multiplication,2021.2.3,59.990093955823724
block6.xlsx,,,,,,,,,,,,,,0,1,1,1,,,,,,,,,,,,,,,,,,,,,,,,,,,,,,,,,,,,,,,,,,,,,,,,,,sub-07,06/10/2001,1: Male,21/09/2023,002,1: right,2023_Sep_21_1830,[FINAL]_fmri_multiplication,2021.2.3,59.990093955823724
block7.xlsx,10,7.5,4,2 x 7,14,1,7 x 2 = 14,small-sized_low-interference,small-sized,low-interference,4,CorrectRESP,a,0,2,2,2,0,0,0,0,,,,,,,,,,,,,662.3754647170003,None,672.3998731830002,None,672.8757213590002,None,674.8744354240002,None,675.6244905819999,None,675.8745519179997,None,675.8745519179997,None,d,0,0.6354326520004179,675.8745519179997,None,676.5416032959997,None,676.5416032959997,None,d,0.2003758700002436,676.5416032959997,None,676.7742600839997,None,,,,,sub-07,06/10/2001,1: Male,21/09/2023,002,1: right,2023_Sep_21_1830,[FINAL]_fmri_multiplication,2021.2.3,59.990093955823724
block7.xlsx,21.5,7.5,14.2,3 x 6,15,7,6 x 3 = 15,small-sized_high-interference,small-sized,high-interference,8,IncorrectRESP,d,0,2,2,2,0,1,1,1,,,,,,,,,,,,,,,680.7748015560005,None,681.2746086560005,None,683.2748728250003,None,684.0247542580005,None,684.2749046250005,None,684.2749046250005,None,a,0,0.9631369010003255,684.2749046250005,None,685.2559077880001,None,685.2559077880001,None,d,0.2300459320003938,685.2559077880001,None,685.5076202490004,None,,,,,sub-07,06/10/2001,1: Male,21/09/2023,002,1: right,2023_Sep_21_1830,[FINAL]_fmri_multiplication,2021.2.3,59.990093955823724
block7.xlsx,43.2,7.5,5.1,2 x 7,12,1,7 x 2 = 12,small-sized_low-interference,small-sized,low-interference,4,IncorrectRESP,d,0,2,2,2,0,2,2,2,,,,,,,,,,,,,,,699.7076836090005,None,700.2065974239999,None,702.2076344510001,None,702.9574526210004,None,703.2061503790005,None,703.2061503790005,None,a,0,0.8318977310000264,703.2061503790005,None,704.0573746759997,None,704.0573746759997,None,d,0.2686057519995302,704.0573746759997,None,704.3574560929997,None,,,,,sub-07,06/10/2001,1: Male,21/09/2023,002,1: right,2023_Sep_21_1830,[FINAL]_fmri_multiplication,2021.2.3,59.990093955823724
block7.xlsx,55.8,7.5,3.4,5 x 9,40,15,9 x 5 = 40,large-sized_low-interference,large-sized,low-interference,6,IncorrectRESP,d,0,2,2,2,0,3,3,3,,,,,,,,,,,,,,,709.4577282750001,None,709.9563840690003,None,711.9578002949997,None,712.7078851179999,None,712.9567490000004,None,712.9567490000004,None,a,0,0.7531585259994245,712.9567490000004,None,713.7401248,None,713.7401248,None,d,0.20980900599988672,713.7401248,None,713.9753275059998,None,,,,,sub-07,06/10/2001,1: Male,21/09/2023,002,1: right,2023_Sep_21_1830,[FINAL]_fmri_multiplication,2021.2.3,59.990093955823724
block7.xlsx,66.7,7.5,2.9,5 x 5,30,3,5 x 5 = 30,small-sized_low-interference,small-sized,low-interference,3,IncorrectRESP,d,0,2,2,2,0,4,4,4,,,,,,,,,,,,,,,717.374636,None,717.8746827480004,None,719.8746776700004,None,720.6247028299999,None,720.8749835880003,None,720.8749835880003,None,a,0,1.2589894200000344,720.8749835880003,None,722.1572253030004,None,722.1572253030004,None,d,0.2568449310001597,722.1572253030004,None,722.4407314080004,None,,,,,sub-07,06/10/2001,1: Male,21/09/2023,002,1: right,2023_Sep_21_1830,[FINAL]_fmri_multiplication,2021.2.3,59.990093955823724
block7.xlsx,77.1,7.5,13.9,5 x 7,40,17,7 x 5 = 40,large-sized_low-interference,large-sized,low-interference,7,IncorrectRESP,d,0,2,2,2,0,5,5,5,,,,,,,,,,,,,,,725.3410398840001,None,725.8407193899998,None,727.8415961989999,None,728.6062733,None,728.8558653989999,None,728.8558653989999,None,a,0,0.6860701519999566,728.8558653989999,None,729.5742712309998,None,729.5742712309998,None,d,0.21582613200007472,729.5742712309998,None,729.8071751,None,,,,,sub-07,06/10/2001,1: Male,21/09/2023,002,1: right,2023_Sep_21_1830,[FINAL]_fmri_multiplication,2021.2.3,59.990093955823724
block7.xlsx,98.5,7.5,2.6,2 x 8,16,5,8 x 2 = 16,small-sized_low-interference,small-sized,low-interference,7,CorrectRESP,a,0,2,2,2,0,6,6,6,,,,,,,,,,,,,,,743.7076866749999,None,744.2071659620001,None,746.2080170570002,None,746.9578334749999,None,747.2064715869997,None,747.2064715869997,None,d,0,0.6555137230006949,747.2064715869997,None,747.8898850219998,None,747.8898850219998,None,d,0.2200425080000059,747.8898850219998,None,748.1412370149997,None,,,,,sub-07,06/10/2001,1: Male,21/09/2023,002,1: right,2023_Sep_21_1830,[FINAL]_fmri_multiplication,2021.2.3,59.990093955823724
block7.xlsx,108.6,7.5,11.6,3 x 6,18,7,6 x 3 = 18,small-sized_high-interference,small-sized,high-interference,8,CorrectRESP,a,0,2,2,2,0,7,7,7,,,,,,,,,,,,,,,750.7381596680002,None,751.2324217170003,None,753.2414926940005,None,753.9912705700003,None,754.2413249369997,None,754.2413249369997,None,d,0,0.8366233910001029,754.2413249369997,None,755.1077784840004,None,755.1077784840004,None,d,0.18617608600015956,755.1077784840004,None,755.3247744,None,,,,,sub-07,06/10/2001,1: Male,21/09/2023,002,1: right,2023_Sep_21_1830,[FINAL]_fmri_multiplication,2021.2.3,59.990093955823724
block7.xlsx,127.7,7.5,5,5 x 5,25,3,5 x 5 = 25,small-sized_low-interference,small-sized,low-interference,3,CorrectRESP,a,0,2,2,2,0,8,8,8,,,,,,,,,,,,,,,766.9244811479998,None,767.4238185689996,None,769.4242107670002,None,770.1743641970002,None,770.4239404,None,770.4239404,None,d,0,0.6860385199997836,770.4239404,None,771.1407508650004,None,771.1407508650004,None,d,0.20122681199973158,771.1407508650004,None,771.3743264529999,None,,,,,sub-07,06/10/2001,1: Male,21/09/2023,002,1: right,2023_Sep_21_1830,[FINAL]_fmri_multiplication,2021.2.3,59.990093955823724
block7.xlsx,140.2,7.5,2.8,6 x 6,36,13,6 x 6 = 36,large-sized_low-interference,large-sized,low-interference,4,CorrectRESP,a,0,2,2,2,0,9,9,9,,,,,,,,,,,,,,,776.3738076370005,None,776.8740124050005,None,778.8743341,None,779.6236625510005,None,779.8730956,None,779.8730956,None,d,0,0.6128550980001819,779.8730956,None,780.5074172159998,None,780.5074172159998,None,d,0.21067186999971454,780.5074172159998,None,780.7406688659999,None,,,,,sub-07,06/10/2001,1: Male,21/09/2023,002,1: right,2023_Sep_21_1830,[FINAL]_fmri_multiplication,2021.2.3,59.990093955823724
block7.xlsx,150.5,7.5,2,3 x 7,21,11,7 x 3 = 21,small-sized_high-interference,small-sized,high-interference,13,CorrectRESP,a,0,2,2,2,0,10,10,10,,,,,,,,,,,,,,,783.5579332720004,None,784.0623925969999,None,786.0747266780004,None,786.8246179180001,None,787.0763213309997,None,787.0763213309997,None,d,0,1.0736312970002473,787.0763213309997,None,788.1743764630005,None,788.1743764630005,None,d,0.18357596800069587,788.1743764630005,None,788.3746232560002,None,,,,,sub-07,06/10/2001,1: Male,21/09/2023,002,1: right,2023_Sep_21_1830,[FINAL]_fmri_multiplication,2021.2.3,59.990093955823724
block7.xlsx,160,7.5,2.7,6 x 7,48,23,7 x 6 = 48,large-sized_high-interference,large-sized,high-interference,22,IncorrectRESP,d,0,2,2,2,0,11,11,11,,,,,,,,,,,,,,,790.3747131329997,None,790.8732516300001,None,792.8746492530004,None,793.6245162680002,None,793.8738715370005,None,793.8738715370005,None,a,0,0.9323125520004396,793.8738715370005,None,794.8239910610005,None,794.8239910610005,None,d,0.23805214799995156,794.8239910610005,None,795.0909865159997,None,,,,,sub-07,06/10/2001,1: Male,21/09/2023,002,1: right,2023_Sep_21_1830,[FINAL]_fmri_multiplication,2021.2.3,59.990093955823724
block7.xlsx,170.2,7.5,7,5 x 7,35,17,7 x 5 = 35,large-sized_low-interference,large-sized,low-interference,7,CorrectRESP,a,0,2,2,2,0,12,12,12,,,,,,,,,,,,,,,797.7911864570001,None,798.2910591149998,None,800.2910976349999,None,801.0409201870002,None,801.2896718,None,801.2896718,None,d,0,0.6603133700000399,801.2896718,None,801.9738550320003,None,801.9738550320003,None,d,0.21619560399994953,801.9738550320003,None,802.2076321300005,None,,,,,sub-07,06/10/2001,1: Male,21/09/2023,002,1: right,2023_Sep_21_1830,[FINAL]_fmri_multiplication,2021.2.3,59.990093955823724
block7.xlsx,184.7,7.5,3,3 x 9,27,19,9 x 3 = 27,large-sized_high-interference,large-sized,high-interference,9,CorrectRESP,a,0,2,2,2,0,13,13,13,,,,,,,,,,,,,,,809.2069263,None,809.7061801109999,None,811.7075863590003,None,812.4576487689997,None,812.7082175130004,None,812.7082175130004,None,d,0,0.6497244129996034,812.7082175130004,None,813.3904818040005,None,813.3904818040005,None,d,0.17559122200054844,813.3904818040005,None,813.5906523529998,None,,,,,sub-07,06/10/2001,1: Male,21/09/2023,002,1: right,2023_Sep_21_1830,[FINAL]_fmri_multiplication,2021.2.3,59.990093955823724
block7.xlsx,195.2,7.5,7.1,4 x 3,15,9,3 x 4 = 15,small-sized_high-interference,small-sized,high-interference,10,IncorrectRESP,d,0,2,2,2,0,14,14,14,,,,,,,,,,,,,,,816.5910290719999,None,817.0909519,None,819.1078349530003,None,819.8379804620004,None,820.0841888500004,None,820.0841888500004,None,a,0,0.9858060029991975,820.0841888500004,None,821.0896460629997,None,821.0896460629997,None,d,0.22027108000020235,821.0896460629997,None,821.3416197649999,None,,,,,sub-07,06/10/2001,1: Male,21/09/2023,002,1: right,2023_Sep_21_1830,[FINAL]_fmri_multiplication,2021.2.3,59.990093955823724
block7.xlsx,209.8,7.5,3.9,2 x 8,18,5,8 x 2 = 18,small-sized_low-interference,small-sized,low-interference,7,IncorrectRESP,d,0,2,2,2,0,15,15,15,,,,,,,,,,,,,,,828.4406852340003,None,828.9407565260003,None,830.9410858530005,None,831.6915676590002,None,831.9409611040005,None,831.9409611040005,None,a,0,0.8492407089997869,831.9409611040005,None,832.8075882939997,None,832.8075882939997,None,d,0.18256994400053372,832.8075882939997,None,833.0073083970005,None,,,,,sub-07,06/10/2001,1: Male,21/09/2023,002,1: right,2023_Sep_21_1830,[FINAL]_fmri_multiplication,2021.2.3,59.990093955823724
block7.xlsx,221.2,7.5,13.2,8 x 5,40,21,5 x 8 = 40,large-sized_high-interference,large-sized,high-interference,9,CorrectRESP,a,0,2,2,2,0,16,16,16,,,,,,,,,,,,,,,836.9075479,None,837.4073236870004,None,839.4077031090005,None,840.1575698990005,None,840.4059566560004,None,840.4059566560004,None,d,0,0.863971072,840.4059566560004,None,841.2904255660001,None,841.2904255660001,None,d,0.17957124699933047,841.2904255660001,None,841.4905849680003,None,,,,,sub-07,06/10/2001,1: Male,21/09/2023,002,1: right,2023_Sep_21_1830,[FINAL]_fmri_multiplication,2021.2.3,59.990093955823724
block7.xlsx,241.9,7.5,8.7,3 x 7,24,11,7 x 3 = 24,small-sized_high-interference,small-sized,high-interference,13,IncorrectRESP,d,0,2,2,2,0,17,17,17,,,,,,,,,,,,,,,854.6888816109999,None,855.1929186940001,None,857.2080548360004,None,857.9581493130004,None,858.2074636310003,None,858.2074636310003,None,a,0,0.742489976,858.2074636310003,None,858.9742746810002,None,858.9742746810002,None,d,0.18364387000019633,858.9742746810002,None,859.1747429110005,None,,,,,sub-07,06/10/2001,1: Male,21/09/2023,002,1: right,2023_Sep_21_1830,[FINAL]_fmri_multiplication,2021.2.3,59.990093955823724
block7.xlsx,258.1,7.5,8.1,6 x 6,30,13,6 x 6 = 30,large-sized_low-interference,large-sized,low-interference,4,IncorrectRESP,d,0,2,2,2,0,18,18,18,,,,,,,,,,,,,,,867.8744874910003,None,868.3731499549999,None,870.3743292160002,None,871.1245273939999,None,871.3742769779997,None,871.3742769779997,None,a,0,1.0637812909999411,871.3742769779997,None,872.4571999430004,None,872.4571999430004,None,d,0.16490342899942334,872.4571999430004,None,872.6410212300002,None,,,,,sub-07,06/10/2001,1: Male,21/09/2023,002,1: right,2023_Sep_21_1830,[FINAL]_fmri_multiplication,2021.2.3,59.990093955823724
block7.xlsx,273.7,7.5,8.2,8 x 5,45,21,5 x 8 = 45,large-sized_high-interference,large-sized,high-interference,9,IncorrectRESP,d,0,2,2,2,0,19,19,19,,,,,,,,,,,,,,,880.7406259,None,881.2406796170003,None,883.2410284749999,None,883.9909292220004,None,884.2404229950002,None,884.2404229950002,None,a,0,0.7175464369993279,884.2404229950002,None,884.9909395970003,None,884.9909395970003,None,d,0.15899412999988272,884.9909395970003,None,885.1739720119999,None,,,,,sub-07,06/10/2001,1: Male,21/09/2023,002,1: right,2023_Sep_21_1830,[FINAL]_fmri_multiplication,2021.2.3,59.990093955823724
block7.xlsx,289.4,7.5,5.5,4 x 3,12,9,3 x 4 = 12,small-sized_high-interference,small-sized,high-interference,10,CorrectRESP,a,0,2,2,2,0,20,20,20,,,,,,,,,,,,,,,893.3746988429998,None,893.8744719339998,None,895.8743649909998,None,896.6248069529997,None,896.8749639580005,None,896.8749639580005,None,d,0,0.6349826350005969,896.8749639580005,None,897.5415500080003,None,897.5415500080003,None,d,0.4244488670001374,897.5415500080003,None,897.9911516260004,None,,,,,sub-07,06/10/2001,1: Male,21/09/2023,002,1: right,2023_Sep_21_1830,[FINAL]_fmri_multiplication,2021.2.3,59.990093955823724
block7.xlsx,302.4,7.5,4.8,3 x 9,24,19,9 x 3 = 24,large-sized_high-interference,large-sized,high-interference,9,IncorrectRESP,d,0,2,2,2,0,21,21,21,,,,,,,,,,,,,,,903.4906222730001,None,903.9894871450001,None,905.9907671739998,None,906.7409312820005,None,906.9903390599998,None,906.9903390599998,None,a,0,0.8076995219998935,906.9903390599998,None,907.8238405670004,None,907.8238405670004,None,d,0.20619481900030223,907.8238405670004,None,908.0572085219997,None,,,,,sub-07,06/10/2001,1: Male,21/09/2023,002,1: right,2023_Sep_21_1830,[FINAL]_fmri_multiplication,2021.2.3,59.990093955823724
block7.xlsx,314.7,7.5,2.5,5 x 9,45,15,9 x 5 = 45,large-sized_low-interference,large-sized,low-interference,6,CorrectRESP,a,0,2,2,2,0,22,22,22,,,,,,,,,,,,,,,912.8577146820003,None,913.3563974470003,None,915.3572110990003,None,916.1243423990004,None,916.3742563720002,None,916.3742563720002,None,a,1,1.2158385420007107,916.3742563720002,None,917.6072327659999,None,917.6072327659999,None,d,0.1588395409999066,917.6072327659999,None,917.7905617040001,None,,,,,sub-07,06/10/2001,1: Male,21/09/2023,002,1: right,2023_Sep_21_1830,[FINAL]_fmri_multiplication,2021.2.3,59.990093955823724
block7.xlsx,324.7,7.5,2.8,6 x 7,42,23,7 x 6 = 42,large-sized_high-interference,large-sized,high-interference,22,CorrectRESP,a,0,2,2,2,0,23,23,23,,,,,,,,,,,,,,,920.2911114459998,None,920.7901029,None,922.7911592810001,None,923.5414871610005,None,923.7913997729997,None,923.7913997729997,None,d,0,0.7185797379997894,923.7913997729997,None,924.5386330240003,None,924.5386330240003,None,d,0.16346737099956954,924.5386330240003,None,924.7213645890001,None,,,,,sub-07,06/10/2001,1: Male,21/09/2023,002,1: right,2023_Sep_21_1830,[FINAL]_fmri_multiplication,2021.2.3,59.990093955823724
block7.xlsx,,,,,,,,,,,,,,0,2,2,2,,,,,0,0,0,0,,,,,,,,,,,,,,,,,,,,,,,,,,,,,,,,,,,,,,927.5254587880004,None,927.5254587880004,None,sub-07,06/10/2001,1: Male,21/09/2023,002,1: right,2023_Sep_21_1830,[FINAL]_fmri_multiplication,2021.2.3,59.990093955823724
block7.xlsx,,,,,,,,,,,,,,0,2,2,2,,,,,1,0,1,0,,,,,,,,,,,,,,,,,,,,,,,,,,,,,,,,,,,,,,928.5433608939998,None,928.5433608939998,None,sub-07,06/10/2001,1: Male,21/09/2023,002,1: right,2023_Sep_21_1830,[FINAL]_fmri_multiplication,2021.2.3,59.990093955823724
block7.xlsx,,,,,,,,,,,,,,0,2,2,2,,,,,2,0,2,0,,,,,,,,,,,,,,,,,,,,,,,,,,,,,,,,,,,,,,929.5435660630005,None,929.5435660630005,None,sub-07,06/10/2001,1: Male,21/09/2023,002,1: right,2023_Sep_21_1830,[FINAL]_fmri_multiplication,2021.2.3,59.990093955823724
block7.xlsx,,,,,,,,,,,,,,0,2,2,2,,,,,3,0,3,0,,,,,,,,,,,,,,,,,,,,,,,,,,,,,,,,,,,,,,930.5439867079999,None,930.5439867079999,None,sub-07,06/10/2001,1: Male,21/09/2023,002,1: right,2023_Sep_21_1830,[FINAL]_fmri_multiplication,2021.2.3,59.990093955823724
block7.xlsx,,,,,,,,,,,,,,0,2,2,2,,,,,4,0,4,0,,,,,,,,,,,,,,,,,,,,,,,,,,,,,,,,,,,,,,931.5399779000004,None,931.5399779000004,None,sub-07,06/10/2001,1: Male,21/09/2023,002,1: right,2023_Sep_21_1830,[FINAL]_fmri_multiplication,2021.2.3,59.990093955823724
block7.xlsx,,,,,,,,,,,,,,0,2,2,2,,,,,5,0,5,0,,,,,,,,,,,,,,,,,,,,,,,,,,,,,,,,,,,,,,932.5418696399997,None,932.5418696399997,None,sub-07,06/10/2001,1: Male,21/09/2023,002,1: right,2023_Sep_21_1830,[FINAL]_fmri_multiplication,2021.2.3,59.990093955823724
block7.xlsx,,,,,,,,,,,,,,0,2,2,2,,,,,6,0,6,0,,,,,,,,,,,,,,,,,,,,,,,,,,,,,,,,,,,,,,933.5436216270004,None,933.5436216270004,None,sub-07,06/10/2001,1: Male,21/09/2023,002,1: right,2023_Sep_21_1830,[FINAL]_fmri_multiplication,2021.2.3,59.990093955823724
block7.xlsx,,,,,,,,,,,,,,0,2,2,2,,,,,7,0,7,0,,,,,,,,,,,,,,,,,,,,,,,,,,,,,,,,,,,,,,934.5432377,None,934.5432377,None,sub-07,06/10/2001,1: Male,21/09/2023,002,1: right,2023_Sep_21_1830,[FINAL]_fmri_multiplication,2021.2.3,59.990093955823724
block7.xlsx,,,,,,,,,,,,,,0,2,2,2,,,,,8,0,8,0,,,,,,,,,,,,,,,,,,,,,,,,,,,,,,,,,,,,,,935.5407497,None,935.5407497,None,sub-07,06/10/2001,1: Male,21/09/2023,002,1: right,2023_Sep_21_1830,[FINAL]_fmri_multiplication,2021.2.3,59.990093955823724
block7.xlsx,,,,,,,,,,,,,,0,2,2,2,,,,,9,0,9,0,,,,,,,,,,,,,,,,,,,,,,,,,,,,,,,,,,,,,,936.5410525720004,None,936.5410525720004,None,sub-07,06/10/2001,1: Male,21/09/2023,002,1: right,2023_Sep_21_1830,[FINAL]_fmri_multiplication,2021.2.3,59.990093955823724
block7.xlsx,,,,,,,,,,,,,,0,2,2,2,,,,,10,0,10,0,,,,,,,,,,,,,,,,,,,,,,,,,,,,,,,,,,,,,,937.5408514659998,None,937.5408514659998,None,sub-07,06/10/2001,1: Male,21/09/2023,002,1: right,2023_Sep_21_1830,[FINAL]_fmri_multiplication,2021.2.3,59.990093955823724
block7.xlsx,,,,,,,,,,,,,,0,2,2,2,,,,,11,0,11,0,,,,,,,,,,,,,,,,,,,,,,,,,,,,,,,,,,,,,,938.5409725169998,None,938.5409725169998,None,sub-07,06/10/2001,1: Male,21/09/2023,002,1: right,2023_Sep_21_1830,[FINAL]_fmri_multiplication,2021.2.3,59.990093955823724
block7.xlsx,,,,,,,,,,,,,,0,2,2,2,,,,,12,0,12,0,,,,,,,,,,,,,,,,,,,,,,,,,,,,,,,,,,,,,,939.5396693,None,939.5396693,None,sub-07,06/10/2001,1: Male,21/09/2023,002,1: right,2023_Sep_21_1830,[FINAL]_fmri_multiplication,2021.2.3,59.990093955823724
block7.xlsx,,,,,,,,,,,,,,0,2,2,2,,,,,13,0,13,0,,,,,,,,,,,,,,,,,,,,,,,,,,,,,,,,,,,,,,940.5417448140001,None,940.5417448140001,None,sub-07,06/10/2001,1: Male,21/09/2023,002,1: right,2023_Sep_21_1830,[FINAL]_fmri_multiplication,2021.2.3,59.990093955823724
block7.xlsx,,,,,,,,,,,,,,0,2,2,2,,,,,14,0,14,0,,,,,,,,,,,,,,,,,,,,,,,,,,,,,,,,,,,,,,941.5408723169999,None,941.5408723169999,None,sub-07,06/10/2001,1: Male,21/09/2023,002,1: right,2023_Sep_21_1830,[FINAL]_fmri_multiplication,2021.2.3,59.990093955823724
block7.xlsx,,,,,,,,,,,,,,0,2,2,2,,,,,15,0,15,0,,,,,,,,,,,,,,,,,,,,,,,,,,,,,,,,,,,,,,942.5417164,None,942.5417164,None,sub-07,06/10/2001,1: Male,21/09/2023,002,1: right,2023_Sep_21_1830,[FINAL]_fmri_multiplication,2021.2.3,59.990093955823724
block7.xlsx,,,,,,,,,,,,,,0,2,2,2,,,,,16,0,16,0,,,,,,,,,,,,,,,,,,,,,,,,,,,,,,,,,,,,,,943.5401578730002,None,943.5401578730002,None,sub-07,06/10/2001,1: Male,21/09/2023,002,1: right,2023_Sep_21_1830,[FINAL]_fmri_multiplication,2021.2.3,59.990093955823724
block7.xlsx,,,,,,,,,,,,,,0,2,2,2,,,,,17,0,17,0,,,,,,,,,,,,,,,,,,,,,,,,,,,,,,,,,,,,,,944.5417230090002,None,944.5417230090002,None,sub-07,06/10/2001,1: Male,21/09/2023,002,1: right,2023_Sep_21_1830,[FINAL]_fmri_multiplication,2021.2.3,59.990093955823724
block7.xlsx,,,,,,,,,,,,,,0,2,2,2,,,,,18,0,18,0,,,,,,,,,,,,,,,,,,,,,,,,,,,,,,,,,,,,,,945.5410169950005,None,945.5410169950005,None,sub-07,06/10/2001,1: Male,21/09/2023,002,1: right,2023_Sep_21_1830,[FINAL]_fmri_multiplication,2021.2.3,59.990093955823724
block7.xlsx,,,,,,,,,,,,,,0,2,2,2,,,,,19,0,19,0,,,,,,,,,,,,,,,,,,,,,,,,,,,,,,,,,,,,,,946.5417951630002,None,946.5417951630002,None,sub-07,06/10/2001,1: Male,21/09/2023,002,1: right,2023_Sep_21_1830,[FINAL]_fmri_multiplication,2021.2.3,59.990093955823724
block7.xlsx,,,,,,,,,,,,,,0,2,2,2,,,,,20,0,20,0,,,,,,,,,,,,,,,,,,,,,,,,,,,,,,,,,,,,,,947.5423910229997,None,947.5423910229997,None,sub-07,06/10/2001,1: Male,21/09/2023,002,1: right,2023_Sep_21_1830,[FINAL]_fmri_multiplication,2021.2.3,59.990093955823724
block7.xlsx,,,,,,,,,,,,,,0,2,2,2,,,,,21,0,21,0,,,,,,,,,,,,,,,,,,,,,,,,,,,,,,,,,,,,,,948.5409906210002,None,948.5409906210002,None,sub-07,06/10/2001,1: Male,21/09/2023,002,1: right,2023_Sep_21_1830,[FINAL]_fmri_multiplication,2021.2.3,59.990093955823724
block7.xlsx,,,,,,,,,,,,,,0,2,2,2,,,,,22,0,22,0,,,,,,,,,,,,,,,,,,,,,,,,,,,,,,,,,,,,,,949.5407756560003,None,949.5407756560003,None,sub-07,06/10/2001,1: Male,21/09/2023,002,1: right,2023_Sep_21_1830,[FINAL]_fmri_multiplication,2021.2.3,59.990093955823724
block7.xlsx,,,,,,,,,,,,,,0,2,2,2,,,,,23,0,23,0,,,,,,,,,,,,,,,,,,,,,,,,,,,,,,,,,,,,,,950.5417618,None,950.5417618,None,sub-07,06/10/2001,1: Male,21/09/2023,002,1: right,2023_Sep_21_1830,[FINAL]_fmri_multiplication,2021.2.3,59.990093955823724
block7.xlsx,,,,,,,,,,,,,,0,2,2,2,,,,,24,0,24,0,,,,,,,,,,,,,,,,,,,,,,,,,,,,,,,,,,,,,,951.5416845699997,None,951.5416845699997,None,sub-07,06/10/2001,1: Male,21/09/2023,002,1: right,2023_Sep_21_1830,[FINAL]_fmri_multiplication,2021.2.3,59.990093955823724
block7.xlsx,,,,,,,,,,,,,,0,2,2,2,,,,,25,0,25,0,,,,,,,,,,,,,,,,,,,,,,,,,,,,,,,,,,,,,,952.5410719,None,952.5410719,None,sub-07,06/10/2001,1: Male,21/09/2023,002,1: right,2023_Sep_21_1830,[FINAL]_fmri_multiplication,2021.2.3,59.990093955823724
block7.xlsx,,,,,,,,,,,,,,0,2,2,2,,,,,26,0,26,0,,,,,,,,,,,,,,,,,,,,,,,,,,,,,,,,,,,,,,953.5412462,None,953.5412462,None,sub-07,06/10/2001,1: Male,21/09/2023,002,1: right,2023_Sep_21_1830,[FINAL]_fmri_multiplication,2021.2.3,59.990093955823724
block7.xlsx,,,,,,,,,,,,,,0,2,2,2,,,,,27,0,27,0,,,,,,,,,,,,,,,,,,,,,,,,,,,,,,,,,,,,,,954.5409604419997,None,954.5409604419997,None,sub-07,06/10/2001,1: Male,21/09/2023,002,1: right,2023_Sep_21_1830,[FINAL]_fmri_multiplication,2021.2.3,59.990093955823724
block7.xlsx,,,,,,,,,,,,,,0,2,2,2,,,,,28,0,28,0,,,,,,,,,,,,,,,,,,,,,,,,,,,,,,,,,,,,,,955.5551358099997,None,955.5551358099997,None,sub-07,06/10/2001,1: Male,21/09/2023,002,1: right,2023_Sep_21_1830,[FINAL]_fmri_multiplication,2021.2.3,59.990093955823724
block7.xlsx,,,,,,,,,,,,,,0,2,2,2,,,,,29,0,29,0,,,,,,,,,,,,,,,,,,,,,,,,,,,,,,,,,,,,,,956.5411927,None,956.5411927,None,sub-07,06/10/2001,1: Male,21/09/2023,002,1: right,2023_Sep_21_1830,[FINAL]_fmri_multiplication,2021.2.3,59.990093955823724
block7.xlsx,,,,,,,,,,,,,,0,2,2,2,,,,,,,,,,,,,,,,,,,,,,,,,,,,,,,,,,,,,,,,,,,,,,,,,,sub-07,06/10/2001,1: Male,21/09/2023,002,1: right,2023_Sep_21_1830,[FINAL]_fmri_multiplication,2021.2.3,59.990093955823724
block8.xlsx,10,7.5,4.2,9 x 9,81,16,9 x 9 = 81,large-sized_low-interference,large-sized,low-interference,6,CorrectRESP,a,0,3,3,3,0,0,0,0,,,,,,,,,,,,,957.5443285349997,None,967.5638293309999,None,968.0403188089999,None,970.0411371499999,None,970.7917128189997,None,971.0406002889999,None,971.0406002889999,None,d,0,0.8453518950000216,971.0406002889999,None,971.9070082640005,None,971.9070082640005,None,d,0.9869436859999041,971.9070082640005,None,972.9240420460005,None,,,,,sub-07,06/10/2001,1: Male,21/09/2023,002,1: right,2023_Sep_21_1830,[FINAL]_fmri_multiplication,2021.2.3,59.990093955823724
block8.xlsx,21.7,7.5,5.5,5 x 4,20,8,4 x 5 = 20,small-sized_high-interference,small-sized,high-interference,8,CorrectRESP,a,0,3,3,3,0,1,1,1,,,,,,,,,,,,,,,977.1245137999999,None,977.6241164340004,None,979.6238910960005,None,980.3743472780002,None,980.6242235980003,None,980.6242235980003,None,d,0,0.7177626319999035,980.6242235980003,None,981.3742114849997,None,981.3742114849997,None,d,0.16776785499951075,981.3742114849997,None,981.5743767199997,None,,,,,sub-07,06/10/2001,1: Male,21/09/2023,002,1: right,2023_Sep_21_1830,[FINAL]_fmri_multiplication,2021.2.3,59.990093955823724
block8.xlsx,34.7,7.5,13.5,9 x 4,32,20,4 x 9 = 32,large-sized_high-interference,large-sized,high-interference,9,IncorrectRESP,d,0,3,3,3,0,2,2,2,,,,,,,,,,,,,,,987.0738795350003,None,987.5746783190002,None,989.5743152050004,None,990.3243377149997,None,990.5747816589997,None,990.5747816589997,None,a,0,0.743252158,990.5747816589997,None,991.3407351520004,None,991.3407351520004,None,d,0.21724217000064527,991.3407351520004,None,991.5910512,None,,,,,sub-07,06/10/2001,1: Male,21/09/2023,002,1: right,2023_Sep_21_1830,[FINAL]_fmri_multiplication,2021.2.3,59.990093955823724
block8.xlsx,55.7,7.5,3.1,4 x 6,24,10,6 x 4 = 24,small-sized_high-interference,small-sized,high-interference,12,CorrectRESP,a,0,3,3,3,0,3,3,3,,,,,,,,,,,,,,,1005.0910870350003,None,1005.5895867880004,None,1007.5909436770003,None,1008.3411918070001,None,1008.5905637150004,None,1008.5905637150004,None,d,0,0.6634103090000281,1008.5905637150004,None,1009.2740414269997,None,1009.2740414269997,None,d,0.2119228839992502,1009.2740414269997,None,1009.5073250230002,None,,,,,sub-07,06/10/2001,1: Male,21/09/2023,002,1: right,2023_Sep_21_1830,[FINAL]_fmri_multiplication,2021.2.3,59.990093955823724
block8.xlsx,66.3,7.5,7.7,2 x 6,10,6,6 x 2 = 10,small-sized_low-interference,small-sized,low-interference,3,IncorrectRESP,d,0,3,3,3,0,4,4,4,,,,,,,,,,,,,,,1012.6242574749999,None,1013.124236,None,1015.1243706299997,None,1015.8743426300002,None,1016.1247193060003,None,1016.1247193060003,None,a,0,0.849427377,1016.1247193060003,None,1016.9909543770004,None,1016.9909543770004,None,d,0.231105744,1016.9909543770004,None,1017.2410014820002,None,,,,,sub-07,06/10/2001,1: Male,21/09/2023,002,1: right,2023_Sep_21_1830,[FINAL]_fmri_multiplication,2021.2.3,59.990093955823724
block8.xlsx,81.5,7.5,6.9,7 x 7,49,18,7 x 7 = 49,large-sized_low-interference,large-sized,low-interference,7,CorrectRESP,a,0,3,3,3,0,5,5,5,,,,,,,,,,,,,,,1024.9411776740003,None,1025.439321,None,1027.4412121130003,None,1028.1911094210004,None,1028.4410620029998,None,1028.4410620029998,None,d,0,1.0609652149996691,1028.4410620029998,None,1029.5241492110003,None,1029.5241492110003,None,d,0.22605884400036302,1029.5241492110003,None,1029.7647119409999,None,,,,,sub-07,06/10/2001,1: Male,21/09/2023,002,1: right,2023_Sep_21_1830,[FINAL]_fmri_multiplication,2021.2.3,59.990093955823724
block8.xlsx,95.9,7.5,12.3,2 x 6,12,6,6 x 2 = 12,small-sized_low-interference,small-sized,low-interference,3,CorrectRESP,a,0,3,3,3,0,6,6,6,,,,,,,,,,,,,,,1036.674351,None,1037.174573,None,1039.1744123640005,None,1039.9245068060004,None,1040.1729161910002,None,1040.1729161910002,None,a,1,1.0890849449997404,1040.1729161910002,None,1041.2910913330002,None,1041.2910913330002,None,d,0.2348727329999747,1041.2910913330002,None,1041.5572119330004,None,,,,,sub-07,06/10/2001,1: Male,21/09/2023,002,1: right,2023_Sep_21_1830,[FINAL]_fmri_multiplication,2021.2.3,59.990093955823724
block8.xlsx,115.7,7.5,2.7,7 x 8,63,22,8 x 7 = 63,large-sized_high-interference,large-sized,high-interference,9,IncorrectRESP,d,0,3,3,3,0,7,7,7,,,,,,,,,,,,,,,1053.8576046129997,None,1054.3576736660002,None,1056.3572361359998,None,1057.1078020110003,None,1057.356422,None,1057.356422,None,a,0,0.8575834740004211,1057.356422,None,1058.2404503419998,None,1058.2404503419998,None,d,0.2056223809995572,1058.2404503419998,None,1058.473723,None,,,,,sub-07,06/10/2001,1: Male,21/09/2023,002,1: right,2023_Sep_21_1830,[FINAL]_fmri_multiplication,2021.2.3,59.990093955823724
block8.xlsx,125.9,7.5,7.8,9 x 2,16,2,2 x 9 = 16,small-sized_low-interference,small-sized,low-interference,7,IncorrectRESP,d,0,3,3,3,0,8,8,8,,,,,,,,,,,,,,,1061.1744460120003,None,1061.6749827919998,None,1063.6742113579999,None,1064.4246661700004,None,1064.6748828800005,None,1064.6748828800005,None,d,1,0.6430908599995746,1064.6748828800005,None,1065.3383584079997,None,1065.3383584079997,None,d,0.20359858600022562,1065.3383584079997,None,1065.5747827420005,None,,,,,sub-07,06/10/2001,1: Male,21/09/2023,002,1: right,2023_Sep_21_1830,[FINAL]_fmri_multiplication,2021.2.3,59.990093955823724
block8.xlsx,141.2,7.5,2.9,8 x 3,24,12,3 x 8 = 24,small-sized_high-interference,small-sized,high-interference,13,CorrectRESP,a,0,3,3,3,0,9,9,9,,,,,,,,,,,,,,,1073.373932,None,1073.874044,None,1075.8742320349997,None,1076.6244970940002,None,1076.8738796960001,None,1076.8738796960001,None,d,0,0.8041927229996872,1076.8738796960001,None,1077.707816,None,1077.707816,None,d,0.5382572729995445,1077.707816,None,1078.2744704600004,None,,,,,sub-07,06/10/2001,1: Male,21/09/2023,002,1: right,2023_Sep_21_1830,[FINAL]_fmri_multiplication,2021.2.3,59.990093955823724
block8.xlsx,151.6,7.5,2,4 x 8,32,24,8 x 4 = 32,large-sized_high-interference,large-sized,high-interference,25,CorrectRESP,a,0,3,3,3,0,10,10,10,,,,,,,,,,,,,,,1081.1743633259998,None,1081.6740975380003,None,1083.674295,None,1084.4242065230005,None,1084.6732668300006,None,1084.6732668300006,None,d,0,0.636624564,1084.6732668300006,None,1085.34079,None,1085.34079,None,d,0.5292031440003484,1085.34079,None,1085.8905347300001,None,,,,,sub-07,06/10/2001,1: Male,21/09/2023,002,1: right,2023_Sep_21_1830,[FINAL]_fmri_multiplication,2021.2.3,59.990093955823724
block8.xlsx,161.1,7.5,13.1,9 x 9,72,16,9 x 9 = 72,large-sized_low-interference,large-sized,low-interference,6,IncorrectRESP,d,0,3,3,3,0,11,11,11,,,,,,,,,,,,,,,1087.8912344530004,None,1088.3896052730001,None,1090.3904912230005,None,1091.1409341949998,None,1091.3900875330005,None,1091.3900875330005,None,a,0,0.6000150429999849,1091.3900875330005,None,1092.008057,None,1092.008057,None,d,0.2459482840004057,1092.008057,None,1092.2738942350002,None,,,,,sub-07,06/10/2001,1: Male,21/09/2023,002,1: right,2023_Sep_21_1830,[FINAL]_fmri_multiplication,2021.2.3,59.990093955823724
block8.xlsx,181.7,7.5,2.4,5 x 4,16,8,4 x 5 = 16,small-sized_high-interference,small-sized,high-interference,8,IncorrectRESP,d,0,3,3,3,0,12,12,12,,,,,,,,,,,,,,,1105.3748034820005,None,1105.8747707440002,None,1107.8748196110005,None,1108.624726,None,1108.8743381580002,None,1108.8743381580002,None,a,0,0.9477511240002059,1108.8743381580002,None,1109.840305,None,1109.840305,None,d,0.2777528799997526,1109.840305,None,1110.1404905989998,None,,,,,sub-07,06/10/2001,1: Male,21/09/2023,002,1: right,2023_Sep_21_1830,[FINAL]_fmri_multiplication,2021.2.3,59.990093955823724
block8.xlsx,191.6,7.5,5.7,7 x 7,56,18,7 x 7 = 56,large-sized_low-interference,large-sized,low-interference,7,IncorrectRESP,d,0,3,3,3,0,13,13,13,,,,,,,,,,,,,,,1112.5410011959998,None,1113.0405662529997,None,1115.041102,None,1115.7905096850004,None,1116.0410073509997,None,1116.0410073509997,None,a,0,0.7730275100002473,1116.0410073509997,None,1116.840738,None,1116.840738,None,d,0.18131671999981336,1116.840738,None,1117.0405296610002,None,,,,,sub-07,06/10/2001,1: Male,21/09/2023,002,1: right,2023_Sep_21_1830,[FINAL]_fmri_multiplication,2021.2.3,59.990093955823724
block8.xlsx,204.8,7.5,2.2,9 x 2,18,2,2 x 9 = 18,small-sized_low-interference,small-sized,low-interference,7,CorrectRESP,a,0,3,3,3,0,14,14,14,,,,,,,,,,,,,,,1122.7410146819998,None,1123.241219,None,1125.2405400270004,None,1125.9907467910002,None,1126.2413426340004,None,1126.2413426340004,None,d,0,1.0686031779996483,1126.2413426340004,None,1127.3398340019999,None,1127.3398340019999,None,d,0.21014222000030713,1127.3398340019999,None,1127.5743060560003,None,,,,,sub-07,06/10/2001,1: Male,21/09/2023,002,1: right,2023_Sep_21_1830,[FINAL]_fmri_multiplication,2021.2.3,59.990093955823724
block8.xlsx,214.5,7.5,5.2,8 x 3,21,12,3 x 8 = 21,small-sized_high-interference,small-sized,high-interference,13,IncorrectRESP,d,0,3,3,3,0,15,15,15,,,,,,,,,,,,,,,1129.7743246390005,None,1130.273892,None,1132.273821,None,1133.0239478380004,None,1133.2740842240005,None,1133.2740842240005,None,a,0,0.843955517,1133.2740842240005,None,1134.1408777430001,None,1134.1408777430001,None,d,0.16124601000046823,1134.1408777430001,None,1134.3242959189997,None,,,,,sub-07,06/10/2001,1: Male,21/09/2023,002,1: right,2023_Sep_21_1830,[FINAL]_fmri_multiplication,2021.2.3,59.990093955823724
block8.xlsx,227.2,7.5,3.8,4 x 4,20,4,4 x 4 = 20,small-sized_low-interference,small-sized,low-interference,5,IncorrectRESP,d,0,3,3,3,0,16,16,16,,,,,,,,,,,,,,,1139.52469,None,1140.0240192810002,None,1142.0242301430003,None,1142.7749,None,1143.0254355499997,None,1143.0254355499997,None,a,0,0.6286050680000699,1143.0254355499997,None,1143.6724899719998,None,1143.6724899719998,None,d,0.18151993799983757,1143.6724899719998,None,1143.8739498259997,None,,,,,sub-07,06/10/2001,1: Male,21/09/2023,002,1: right,2023_Sep_21_1830,[FINAL]_fmri_multiplication,2021.2.3,59.990093955823724
block8.xlsx,238.5,7.5,2,4 x 6,28,10,6 x 4 = 28,small-sized_high-interference,small-sized,high-interference,12,IncorrectRESP,d,0,3,3,3,0,17,17,17,,,,,,,,,,,,,,,1147.6742213849998,None,1148.1738405219999,None,1150.174558,None,1150.9244224870004,None,1151.1729129070004,None,1151.1729129070004,None,a,0,1.3610367999999653,1151.1729129070004,None,1152.5572358539998,None,1152.5572358539998,None,d,0.16083150600024965,1152.5572358539998,None,1152.7409307519997,None,,,,,sub-07,06/10/2001,1: Male,21/09/2023,002,1: right,2023_Sep_21_1830,[FINAL]_fmri_multiplication,2021.2.3,59.990093955823724
block8.xlsx,248,7.5,4,6 x 5,30,14,5 x 6 = 30,large-sized_low-interference,large-sized,low-interference,6,CorrectRESP,a,0,3,3,3,0,18,18,18,,,,,,,,,,,,,,,1154.7410501440004,None,1155.2407976890004,None,1157.2409784369997,None,1157.9905206520002,None,1158.240766,None,1158.240766,None,d,0,0.6612530239999614,1158.240766,None,1158.9238555010002,None,1158.9238555010002,None,d,0.20212279800034594,1158.9238555010002,None,1159.1574584410005,None,,,,,sub-07,06/10/2001,1: Male,21/09/2023,002,1: right,2023_Sep_21_1830,[FINAL]_fmri_multiplication,2021.2.3,59.990093955823724
block8.xlsx,259.5,7.5,11.3,7 x 8,56,22,8 x 7 = 56,large-sized_high-interference,large-sized,high-interference,9,CorrectRESP,a,0,3,3,3,0,19,19,19,,,,,,,,,,,,,,,1163.1571857860004,None,1163.6559474760002,None,1165.6576679330005,None,1166.4078114280005,None,1166.657191,None,1166.657191,None,d,0,0.8448780300004728,1166.657191,None,1167.524024,None,1167.524024,None,d,0.18593259600038436,1167.524024,None,1167.7411872480002,None,,,,,sub-07,06/10/2001,1: Male,21/09/2023,002,1: right,2023_Sep_21_1830,[FINAL]_fmri_multiplication,2021.2.3,59.990093955823724
block8.xlsx,278.3,7.5,10.9,6 x 5,36,14,5 x 6 = 36,large-sized_low-interference,large-sized,low-interference,6,IncorrectRESP,d,0,3,3,3,0,20,20,20,,,,,,,,,,,,,,,1179.0413241780002,None,1179.5407667900004,None,1181.5412294290004,None,1182.2917441599998,None,1182.5408588719997,None,1182.5408588719997,None,a,0,0.8731345039996086,1182.5408588719997,None,1183.4402646860003,None,1183.4402646860003,None,d,0.28571637000004557,1183.4402646860003,None,1183.7575438400004,None,,,,,sub-07,06/10/2001,1: Male,21/09/2023,002,1: right,2023_Sep_21_1830,[FINAL]_fmri_multiplication,2021.2.3,59.990093955823724
block8.xlsx,296.7,7.5,3.5,9 x 4,36,20,4 x 9 = 36,large-sized_high-interference,large-sized,high-interference,9,CorrectRESP,a,0,3,3,3,0,21,21,21,,,,,,,,,,,,,,,1194.657637,None,1195.1576649330004,None,1197.1574823349997,None,1197.9076979650004,None,1198.1569183799998,None,1198.1569183799998,None,d,0,0.6891159070000867,1198.1569183799998,None,1198.8728359299998,None,1198.8728359299998,None,d,0.18918576700070844,1198.8728359299998,None,1199.0910342330003,None,,,,,sub-07,06/10/2001,1: Male,21/09/2023,002,1: right,2023_Sep_21_1830,[FINAL]_fmri_multiplication,2021.2.3,59.990093955823724
block8.xlsx,307.7,7.5,2.9,4 x 4,16,4,4 x 4 = 16,small-sized_low-interference,small-sized,low-interference,5,CorrectRESP,a,0,3,3,3,0,22,22,22,,,,,,,,,,,,,,,1202.5908835329997,None,1203.089671,None,1205.0911800119998,None,1205.841589,None,1206.1025784910003,None,1206.1025784910003,None,d,0,0.6551138730001185,1206.1025784910003,None,1206.7749952540003,None,1206.7749952540003,None,d,0.19905452399962087,1206.7749952540003,None,1206.991356,None,,,,,sub-07,06/10/2001,1: Male,21/09/2023,002,1: right,2023_Sep_21_1830,[FINAL]_fmri_multiplication,2021.2.3,59.990093955823724
block8.xlsx,318.1,7.5,9.4,4 x 8,28,24,8 x 4 = 28,large-sized_high-interference,large-sized,high-interference,25,IncorrectRESP,d,0,3,3,3,0,23,23,23,,,,,,,,,,,,,,,1209.8913947200003,None,1210.3900765889998,None,1212.3914324760003,None,1213.1414765690001,None,1213.3917743779998,None,1213.3917743779998,None,a,0,0.7983644149999236,1213.3917743779998,None,1214.2074499060004,None,1214.2074499060004,None,d,0.18260456600000907,1214.2074499060004,None,1214.4072865559997,None,,,,,sub-07,06/10/2001,1: Male,21/09/2023,002,1: right,2023_Sep_21_1830,[FINAL]_fmri_multiplication,2021.2.3,59.990093955823724
block8.xlsx,,,,,,,,,,,,,,0,3,3,3,,,,,0,0,0,0,,,,,,,,,,,,,,,,,,,,,,,,,,,,,,,,,,,,,,1223.808378,None,1223.808378,None,sub-07,06/10/2001,1: Male,21/09/2023,002,1: right,2023_Sep_21_1830,[FINAL]_fmri_multiplication,2021.2.3,59.990093955823724
block8.xlsx,,,,,,,,,,,,,,0,3,3,3,,,,,1,0,1,0,,,,,,,,,,,,,,,,,,,,,,,,,,,,,,,,,,,,,,1224.808327,1224.808327,1224.808327,1224.808327,sub-07,06/10/2001,1: Male,21/09/2023,002,1: right,2023_Sep_21_1830,[FINAL]_fmri_multiplication,2021.2.3,59.990093955823724
block8.xlsx,,,,,,,,,,,,,,0,3,3,3,,,,,2,0,2,0,,,,,,,,,,,,,,,,,,,,,,,,,,,,,,,,,,,,,,1225.8241406000002,None,1225.8241406000002,None,sub-07,06/10/2001,1: Male,21/09/2023,002,1: right,2023_Sep_21_1830,[FINAL]_fmri_multiplication,2021.2.3,59.990093955823724
block8.xlsx,,,,,,,,,,,,,,0,3,3,3,,,,,3,0,3,0,,,,,,,,,,,,,,,,,,,,,,,,,,,,,,,,,,,,,,1226.8220601859998,None,1226.8220601859998,None,sub-07,06/10/2001,1: Male,21/09/2023,002,1: right,2023_Sep_21_1830,[FINAL]_fmri_multiplication,2021.2.3,59.990093955823724
block8.xlsx,,,,,,,,,,,,,,0,3,3,3,,,,,4,0,4,0,,,,,,,,,,,,,,,,,,,,,,,,,,,,,,,,,,,,,,1227.8230734140002,None,1227.8230734140002,None,sub-07,06/10/2001,1: Male,21/09/2023,002,1: right,2023_Sep_21_1830,[FINAL]_fmri_multiplication,2021.2.3,59.990093955823724
block8.xlsx,,,,,,,,,,,,,,0,3,3,3,,,,,5,0,5,0,,,,,,,,,,,,,,,,,,,,,,,,,,,,,,,,,,,,,,1228.8242892640005,None,1228.8242892640005,None,sub-07,06/10/2001,1: Male,21/09/2023,002,1: right,2023_Sep_21_1830,[FINAL]_fmri_multiplication,2021.2.3,59.990093955823724
block8.xlsx,,,,,,,,,,,,,,0,3,3,3,,,,,6,0,6,0,,,,,,,,,,,,,,,,,,,,,,,,,,,,,,,,,,,,,,1229.8244705230004,None,1229.8244705230004,None,sub-07,06/10/2001,1: Male,21/09/2023,002,1: right,2023_Sep_21_1830,[FINAL]_fmri_multiplication,2021.2.3,59.990093955823724
block8.xlsx,,,,,,,,,,,,,,0,3,3,3,,,,,7,0,7,0,,,,,,,,,,,,,,,,,,,,,,,,,,,,,,,,,,,,,,1230.8246229840001,None,1230.8246229840001,None,sub-07,06/10/2001,1: Male,21/09/2023,002,1: right,2023_Sep_21_1830,[FINAL]_fmri_multiplication,2021.2.3,59.990093955823724
block8.xlsx,,,,,,,,,,,,,,0,3,3,3,,,,,8,0,8,0,,,,,,,,,,,,,,,,,,,,,,,,,,,,,,,,,,,,,,1231.8233751860002,None,1231.8233751860002,None,sub-07,06/10/2001,1: Male,21/09/2023,002,1: right,2023_Sep_21_1830,[FINAL]_fmri_multiplication,2021.2.3,59.990093955823724
block8.xlsx,,,,,,,,,,,,,,0,3,3,3,,,,,9,0,9,0,,,,,,,,,,,,,,,,,,,,,,,,,,,,,,,,,,,,,,1232.8254479490001,None,1232.8254479490001,None,sub-07,06/10/2001,1: Male,21/09/2023,002,1: right,2023_Sep_21_1830,[FINAL]_fmri_multiplication,2021.2.3,59.990093955823724
block8.xlsx,,,,,,,,,,,,,,0,3,3,3,,,,,10,0,10,0,,,,,,,,,,,,,,,,,,,,,,,,,,,,,,,,,,,,,,1233.8241198199999,None,1233.8241198199999,None,sub-07,06/10/2001,1: Male,21/09/2023,002,1: right,2023_Sep_21_1830,[FINAL]_fmri_multiplication,2021.2.3,59.990093955823724
block8.xlsx,,,,,,,,,,,,,,0,3,3,3,,,,,11,0,11,0,,,,,,,,,,,,,,,,,,,,,,,,,,,,,,,,,,,,,,1234.8249693740004,None,1234.8249693740004,None,sub-07,06/10/2001,1: Male,21/09/2023,002,1: right,2023_Sep_21_1830,[FINAL]_fmri_multiplication,2021.2.3,59.990093955823724
block8.xlsx,,,,,,,,,,,,,,0,3,3,3,,,,,12,0,12,0,,,,,,,,,,,,,,,,,,,,,,,,,,,,,,,,,,,,,,1235.8267857810001,None,1235.8267857810001,None,sub-07,06/10/2001,1: Male,21/09/2023,002,1: right,2023_Sep_21_1830,[FINAL]_fmri_multiplication,2021.2.3,59.990093955823724
block8.xlsx,,,,,,,,,,,,,,0,3,3,3,,,,,13,0,13,0,,,,,,,,,,,,,,,,,,,,,,,,,,,,,,,,,,,,,,1236.8255857540003,None,1236.8255857540003,None,sub-07,06/10/2001,1: Male,21/09/2023,002,1: right,2023_Sep_21_1830,[FINAL]_fmri_multiplication,2021.2.3,59.990093955823724
block8.xlsx,,,,,,,,,,,,,,0,3,3,3,,,,,14,0,14,0,,,,,,,,,,,,,,,,,,,,,,,,,,,,,,,,,,,,,,1237.8226860560003,None,1237.8226860560003,None,sub-07,06/10/2001,1: Male,21/09/2023,002,1: right,2023_Sep_21_1830,[FINAL]_fmri_multiplication,2021.2.3,59.990093955823724
block8.xlsx,,,,,,,,,,,,,,0,3,3,3,,,,,15,0,15,0,,,,,,,,,,,,,,,,,,,,,,,,,,,,,,,,,,,,,,1238.8268509430004,None,1238.8268509430004,None,sub-07,06/10/2001,1: Male,21/09/2023,002,1: right,2023_Sep_21_1830,[FINAL]_fmri_multiplication,2021.2.3,59.990093955823724
block8.xlsx,,,,,,,,,,,,,,0,3,3,3,,,,,16,0,16,0,,,,,,,,,,,,,,,,,,,,,,,,,,,,,,,,,,,,,,1239.8243864890005,None,1239.8243864890005,None,sub-07,06/10/2001,1: Male,21/09/2023,002,1: right,2023_Sep_21_1830,[FINAL]_fmri_multiplication,2021.2.3,59.990093955823724
block8.xlsx,,,,,,,,,,,,,,0,3,3,3,,,,,17,0,17,0,,,,,,,,,,,,,,,,,,,,,,,,,,,,,,,,,,,,,,1240.825996,None,1240.825996,None,sub-07,06/10/2001,1: Male,21/09/2023,002,1: right,2023_Sep_21_1830,[FINAL]_fmri_multiplication,2021.2.3,59.990093955823724
block8.xlsx,,,,,,,,,,,,,,0,3,3,3,,,,,18,0,18,0,,,,,,,,,,,,,,,,,,,,,,,,,,,,,,,,,,,,,,1241.8253203130002,None,1241.8253203130002,None,sub-07,06/10/2001,1: Male,21/09/2023,002,1: right,2023_Sep_21_1830,[FINAL]_fmri_multiplication,2021.2.3,59.990093955823724
block8.xlsx,,,,,,,,,,,,,,0,3,3,3,,,,,19,0,19,0,,,,,,,,,,,,,,,,,,,,,,,,,,,,,,,,,,,,,,1242.8258061990005,None,1242.8258061990005,None,sub-07,06/10/2001,1: Male,21/09/2023,002,1: right,2023_Sep_21_1830,[FINAL]_fmri_multiplication,2021.2.3,59.990093955823724
block8.xlsx,,,,,,,,,,,,,,0,3,3,3,,,,,20,0,20,0,,,,,,,,,,,,,,,,,,,,,,,,,,,,,,,,,,,,,,1243.8250448290005,None,1243.8250448290005,None,sub-07,06/10/2001,1: Male,21/09/2023,002,1: right,2023_Sep_21_1830,[FINAL]_fmri_multiplication,2021.2.3,59.990093955823724
block8.xlsx,,,,,,,,,,,,,,0,3,3,3,,,,,21,0,21,0,,,,,,,,,,,,,,,,,,,,,,,,,,,,,,,,,,,,,,1244.8245901309997,None,1244.8245901309997,None,sub-07,06/10/2001,1: Male,21/09/2023,002,1: right,2023_Sep_21_1830,[FINAL]_fmri_multiplication,2021.2.3,59.990093955823724
block8.xlsx,,,,,,,,,,,,,,0,3,3,3,,,,,22,0,22,0,,,,,,,,,,,,,,,,,,,,,,,,,,,,,,,,,,,,,,1245.8234445390003,None,1245.8234445390003,None,sub-07,06/10/2001,1: Male,21/09/2023,002,1: right,2023_Sep_21_1830,[FINAL]_fmri_multiplication,2021.2.3,59.990093955823724
block8.xlsx,,,,,,,,,,,,,,0,3,3,3,,,,,23,0,23,0,,,,,,,,,,,,,,,,,,,,,,,,,,,,,,,,,,,,,,1246.8246610660003,None,1246.8246610660003,None,sub-07,06/10/2001,1: Male,21/09/2023,002,1: right,2023_Sep_21_1830,[FINAL]_fmri_multiplication,2021.2.3,59.990093955823724
block8.xlsx,,,,,,,,,,,,,,0,3,3,3,,,,,24,0,24,0,,,,,,,,,,,,,,,,,,,,,,,,,,,,,,,,,,,,,,1247.824318,None,1247.824318,None,sub-07,06/10/2001,1: Male,21/09/2023,002,1: right,2023_Sep_21_1830,[FINAL]_fmri_multiplication,2021.2.3,59.990093955823724
block8.xlsx,,,,,,,,,,,,,,0,3,3,3,,,,,25,0,25,0,,,,,,,,,,,,,,,,,,,,,,,,,,,,,,,,,,,,,,1248.8229469539997,None,1248.8229469539997,None,sub-07,06/10/2001,1: Male,21/09/2023,002,1: right,2023_Sep_21_1830,[FINAL]_fmri_multiplication,2021.2.3,59.990093955823724
block8.xlsx,,,,,,,,,,,,,,0,3,3,3,,,,,26,0,26,0,,,,,,,,,,,,,,,,,,,,,,,,,,,,,,,,,,,,,,1249.8266758129998,None,1249.8266758129998,None,sub-07,06/10/2001,1: Male,21/09/2023,002,1: right,2023_Sep_21_1830,[FINAL]_fmri_multiplication,2021.2.3,59.990093955823724
block8.xlsx,,,,,,,,,,,,,,0,3,3,3,,,,,27,0,27,0,,,,,,,,,,,,,,,,,,,,,,,,,,,,,,,,,,,,,,1250.8229137410003,None,1250.8229137410003,None,sub-07,06/10/2001,1: Male,21/09/2023,002,1: right,2023_Sep_21_1830,[FINAL]_fmri_multiplication,2021.2.3,59.990093955823724
block8.xlsx,,,,,,,,,,,,,,0,3,3,3,,,,,28,0,28,0,,,,,,,,,,,,,,,,,,,,,,,,,,,,,,,,,,,,,,1251.822977,None,1251.822977,None,sub-07,06/10/2001,1: Male,21/09/2023,002,1: right,2023_Sep_21_1830,[FINAL]_fmri_multiplication,2021.2.3,59.990093955823724
block8.xlsx,,,,,,,,,,,,,,0,3,3,3,,,,,29,0,29,0,,,,,,,,,,,,,,,,,,,,,,,,,,,,,,,,,,,,,,1252.8229114500004,None,1252.8229114500004,None,sub-07,06/10/2001,1: Male,21/09/2023,002,1: right,2023_Sep_21_1830,[FINAL]_fmri_multiplication,2021.2.3,59.990093955823724
block8.xlsx,,,,,,,,,,,,,,0,3,3,3,,,,,,,,,,,,,,,,,,,,,,,,,,,,,,,,,,,,,,,,,,,,,,,,,,sub-07,06/10/2001,1: Male,21/09/2023,002,1: right,2023_Sep_21_1830,[FINAL]_fmri_multiplication,2021.2.3,59.990093955823724